mouse_2.x,mouse_2.y,mouse_2.leftButton,mouse_2.midButton,mouse_2.rightButton,mouse_2.time,mouse_gender_task.x,mouse_gender_task.y,mouse_gender_task.leftButton,mouse_gender_task.midButton,mouse_gender_task.rightButton,mouse_gender_task.time,mouse_gender_task.clicked_name,demo.thisRepN,demo.thisTrialN,demo.thisN,demo.thisIndex,demo.ran,coex,coey,imageFile,participant,Student ID number (this is for RPP purpose only),Age,Gender,Handedness,"In this experiment, you need to constantly adjust the position of your cursor. what tool are your using to complete this experiment (mouse, trackpad,etc)?",Do you have normal or correct to normal vision?,date,expName,psychopyVersion,OS,frameRate,mouse.x,mouse.y,mouse.leftButton,mouse.midButton,mouse.rightButton,mouse.time,imageNum,trials.thisRepN,trials.thisTrialN,trials.thisN,trials.thisIndex,trials.ran,cond
-0.000925913,-0.006481489,1,0,0,5.302945,0.126851867,-0.025925934,1,0,0,4.53632,M,0,0,0,1,1,-0.21915,-0.285606,5.bmp,jy,3032750736,21,Male,Right,Mouse,Corrected,2021-04-06_01h52.11.266,facelocalization,2020.1.2,Win32,60,,,,,,,,,,,,,
0.1351852,0.327777775,1,0,0,1.67856,-0.142592581,-0.011111119,1,0,0,5.78408,F,0,1,1,3,1,0.137754,0.332586,13.bmp,jy,3032750736,21,Male,Right,Mouse,Corrected,2021-04-06_01h52.11.266,facelocalization,2020.1.2,Win32,60,,,,,,,,,,,,,
0.254629647,-0.246296307,1,0,0,2.642375,-0.141666599,0.024074067,1,0,0,0.99709,F,0,2,2,0,1,0.254556,-0.254556,1.bmp,jy,3032750736,21,Male,Right,Mouse,Corrected,2021-04-06_01h52.11.266,facelocalization,2020.1.2,Win32,60,,,,,,,,,,,,,
-0.281481472,0.218518514,1,0,0,1.595115,-0.135185174,0.0074074,1,0,0,1.130405,F,0,3,3,2,1,-0.285606,0.21915,9.bmp,jy,3032750736,21,Male,Right,Mouse,Corrected,2021-04-06_01h52.11.266,facelocalization,2020.1.2,Win32,60,,,,,,,,,,,,,
-0.363888881,0.12407404,1,0,0,1.26298,0.157407423,-0.018518526,1,0,0,1.495695,M,0,4,4,7,1,-0.332586,0.137754,29.bmp,jy,3032750736,21,Male,Right,Mouse,Corrected,2021-04-06_01h52.11.266,facelocalization,2020.1.2,Win32,60,,,,,,,,,,,,,
-0.092592581,0.35185185,1,0,0,1.462565,0.125000015,-0.001851859,1,0,0,0.86406,M,0,5,5,5,1,-0.093168,0.347724,21.bmp,jy,3032750736,21,Male,Right,Mouse,Corrected,2021-04-06_01h52.11.266,facelocalization,2020.1.2,Win32,60,,,,,,,,,,,,,
0.263888906,0.188888856,1,0,0,3.523495,0.150925941,-0.011111119,1,0,0,3.17465,M,0,6,6,4,1,0.285606,0.21915,17.bmp,jy,3032750736,21,Male,Right,Mouse,Corrected,2021-04-06_01h52.11.266,facelocalization,2020.1.2,Win32,60,,,,,,,,,,,,,
0.300925944,-0.2138889,1,0,0,1.445555,0.150925941,-0.014814822,1,0,0,1.11375,M,0,7,7,6,1,0.285606,-0.21915,25.bmp,jy,3032750736,21,Male,Right,Mouse,Corrected,2021-04-06_01h52.11.266,facelocalization,2020.1.2,Win32,60,,,,,,,,,,,,,
,,,,,,0.128703719,0.035185178,1,0,0,0.6317,M,,,,,,0.04698,-0.356904,,jy,3032750736,21,Male,Right,Mouse,Corrected,2021-04-06_01h52.11.266,facelocalization,2020.1.2,Win32,60,0.063888903,-0.375925939,1,0,0,1.478485,28,0,0,0,325,1,7
,,,,,,0.151851867,0.016666659,1,0,0,1.29667,M,,,,,,0.332586,-0.137754,,jy,3032750736,21,Male,Right,Mouse,Corrected,2021-04-06_01h52.11.266,facelocalization,2020.1.2,Win32,60,0.327777909,-0.144444454,1,0,0,0.946535,26,0,1,1,333,1,7
,,,,,,0.140740756,0.00277777,1,0,0,1.130105,M,,,,,,-0.332586,-0.137754,,jy,3032750736,21,Male,Right,Mouse,Corrected,2021-04-06_01h52.11.266,facelocalization,2020.1.2,Win32,60,-0.297222213,-0.132407417,1,0,0,1.14672,6,0,2,2,75,1,2
,,,,,,-0.13148147,0.008333326,1,0,0,0.66506,F,,,,,,-0.285606,0.21915,,jy,3032750736,21,Male,Right,Mouse,Corrected,2021-04-06_01h52.11.266,facelocalization,2020.1.2,Win32,60,-0.282407398,0.206481477,1,0,0,1.26198,14,0,3,3,163,1,4
,,,,,,-0.121296285,0.0074074,1,0,0,0.964,F,,,,,,0.04698,-0.356904,,jy,3032750736,21,Male,Right,Mouse,Corrected,2021-04-06_01h52.11.266,facelocalization,2020.1.2,Win32,60,0.03425933,-0.380555569,1,0,0,1.262775,31,0,4,4,373,1,8
,,,,,,-0.139814804,-0.007407415,1,0,0,0.68139,F,,,,,,-0.332586,0.137754,,jy,3032750736,21,Male,Right,Mouse,Corrected,2021-04-06_01h52.11.266,facelocalization,2020.1.2,Win32,60,-0.305555547,0.126851846,1,0,0,1.22955,17,0,5,5,213,1,5
,,,,,,-0.147222211,0.035185178,1,0,0,0.730915,F,,,,,,0.254556,-0.254556,,jy,3032750736,21,Male,Right,Mouse,Corrected,2021-04-06_01h52.11.266,facelocalization,2020.1.2,Win32,60,0.256481499,-0.266666678,1,0,0,1.396225,29,0,6,6,378,1,8
,,,,,,0.113888904,-0.005555563,1,0,0,0.83084,M,,,,,,0.18,-0.31176,,jy,3032750736,21,Male,Right,Mouse,Corrected,2021-04-06_01h52.11.266,facelocalization,2020.1.2,Win32,60,0.181481497,-0.312037106,1,0,0,1.46231,8,0,7,7,88,1,2
,,,,,,0.122222237,-0.005555563,1,0,0,0.963575,M,,,,,,0.332586,0.137754,,jy,3032750736,21,Male,Right,Mouse,Corrected,2021-04-06_01h52.11.266,facelocalization,2020.1.2,Win32,60,0.31851865,0.126851846,1,0,0,0.997555,31,0,8,8,339,1,8
,,,,,,-0.12777771,-0.008333341,1,0,0,0.930545,F,,,,,,0.21915,-0.285606,,jy,3032750736,21,Male,Right,Mouse,Corrected,2021-04-06_01h52.11.266,facelocalization,2020.1.2,Win32,60,0.186111127,-0.291666678,1,0,0,1.080155,30,0,9,9,377,1,8
,,,,,,0.148148164,-0.006481489,1,0,0,0.747865,M,,,,,,0.21915,-0.285606,,jy,3032750736,21,Male,Right,Mouse,Corrected,2021-04-06_01h52.11.266,facelocalization,2020.1.2,Win32,60,0.204629646,-0.277777789,1,0,0,0.914095,22,0,10,10,281,1,6
,,,,,,-0.162037026,0.009259252,1,0,0,0.813895,F,,,,,,0.347724,-0.093168,,jy,3032750736,21,Male,Right,Mouse,Corrected,2021-04-06_01h52.11.266,facelocalization,2020.1.2,Win32,60,0.341666798,-0.101851861,1,0,0,0.864505,25,0,11,11,334,1,7
,,,,,,0.160185201,0.01203703,1,0,0,0.59802,M,,,,,,0.36,0,,jy,3032750736,21,Male,Right,Mouse,Corrected,2021-04-06_01h52.11.266,facelocalization,2020.1.2,Win32,60,0.305555573,-0.008333341,1,0,0,1.09694,18,0,12,12,192,1,5
,,,,,,0.14907409,0.004629622,1,0,0,0.531795,M,,,,,,0.21915,0.285606,,jy,3032750736,21,Male,Right,Mouse,Corrected,2021-04-06_01h52.11.266,facelocalization,2020.1.2,Win32,60,0.213888905,0.203703699,1,0,0,0.89749,9,0,13,13,103,1,3
,,,,,,0.13981483,-0.008333341,1,0,0,0.831025,M,,,,,,-0.347724,0.093168,,jy,3032750736,21,Male,Right,Mouse,Corrected,2021-04-06_01h52.11.266,facelocalization,2020.1.2,Win32,60,-0.294444379,0.080555549,1,0,0,0.94695,21,0,14,14,262,1,6
,,,,,,-0.149999989,0.006481474,1,0,0,0.61495,F,,,,,,-0.18,-0.31176,,jy,3032750736,21,Male,Right,Mouse,Corrected,2021-04-06_01h52.11.266,facelocalization,2020.1.2,Win32,60,-0.187962896,-0.312962975,1,0,0,0.880875,14,0,15,15,176,1,4
,,,,,,0.1351852,0.006481474,1,0,0,0.59869,M,,,,,,0.18,0.31176,,jy,3032750736,21,Male,Right,Mouse,Corrected,2021-04-06_01h52.11.266,facelocalization,2020.1.2,Win32,60,0.192592609,0.268518515,1,0,0,0.913615,28,0,16,16,296,1,7
,,,,,,0.142592608,-0.011111119,1,0,0,0.54834,M,,,,,,0.347724,0.093168,,jy,3032750736,21,Male,Right,Mouse,Corrected,2021-04-06_01h52.11.266,facelocalization,2020.1.2,Win32,60,0.348148167,0.069444438,1,0,0,0.680985,9,0,17,17,98,1,3
,,,,,,0.143518534,-0.002777785,1,0,0,0.564965,M,,,,,,-0.137754,0.332586,,jy,3032750736,21,Male,Right,Mouse,Corrected,2021-04-06_01h52.11.266,facelocalization,2020.1.2,Win32,60,-0.1361111,0.2787037,1,0,0,0.8137,9,0,18,18,111,1,3
,,,,,,0.147222238,-0.002777785,1,0,0,0.598285,M,,,,,,-0.285606,-0.21915,,jy,3032750736,21,Male,Right,Mouse,Corrected,2021-04-06_01h52.11.266,facelocalization,2020.1.2,Win32,60,-0.278703695,-0.239814826,1,0,0,1.080065,12,0,19,19,125,1,3
,,,,,,-0.157407397,0.00277777,1,0,0,1.529235,F,,,,,,0.356904,-0.04698,,jy,3032750736,21,Male,Right,Mouse,Corrected,2021-04-06_01h52.11.266,facelocalization,2020.1.2,Win32,60,0.345370389,-0.049074082,1,0,0,0.697385,13,0,20,20,191,1,4
,,,,,,-0.168518508,-0.008333341,1,0,0,0.96432,F,,,,,,-0.356904,-0.04698,,jy,3032750736,21,Male,Right,Mouse,Corrected,2021-04-06_01h52.11.266,facelocalization,2020.1.2,Win32,60,-0.322222214,-0.071296305,1,0,0,0.980445,13,0,21,21,169,1,4
,,,,,,0.141666682,-0.001851859,1,0,0,0.61486,M,,,,,,-0.31176,-0.18,,jy,3032750736,21,Male,Right,Mouse,Corrected,2021-04-06_01h52.11.266,facelocalization,2020.1.2,Win32,60,-0.298148139,-0.176851862,1,0,0,1.03002,16,0,22,22,172,1,4
,,,,,,0.121296311,-0.007407415,1,0,0,0.614435,M,,,,,,0,-0.36,,jy,3032750736,21,Male,Right,Mouse,Corrected,2021-04-06_01h52.11.266,facelocalization,2020.1.2,Win32,60,0.002777791,-0.334259272,1,0,0,0.980845,5,0,23,23,84,1,2
,,,,,,-0.128703692,-0.012962971,1,0,0,0.69821,F,,,,,,0.347724,0.093168,,jy,3032750736,21,Male,Right,Mouse,Corrected,2021-04-06_01h52.11.266,facelocalization,2020.1.2,Win32,60,0.325925944,0.112962957,1,0,0,0.896615,20,0,24,24,194,1,5
,,,,,,0.131481497,-0.0175926,1,0,0,0.54842,M,,,,,,-0.04698,0.356904,,jy,3032750736,21,Male,Right,Mouse,Corrected,2021-04-06_01h52.11.266,facelocalization,2020.1.2,Win32,60,-0.067592524,0.301851849,1,0,0,1.013445,25,0,25,25,301,1,7
,,,,,,-0.169444377,0.022222215,1,0,0,0.58199,F,,,,,,0.137754,-0.332586,,jy,3032750736,21,Male,Right,Mouse,Corrected,2021-04-06_01h52.11.266,facelocalization,2020.1.2,Win32,60,0.123148163,-0.346296309,1,0,0,0.86354,30,0,26,26,375,1,8
,,,,,,0.137037052,0.0074074,1,0,0,0.61486,M,,,,,,0.093168,-0.347724,,jy,3032750736,21,Male,Right,Mouse,Corrected,2021-04-06_01h52.11.266,facelocalization,2020.1.2,Win32,60,0.094444459,-0.348148161,1,0,0,0.897585,11,0,27,27,134,1,3
,,,,,,-0.157407397,0.014814808,1,0,0,0.713985,F,,,,,,0.36,0,,jy,3032750736,21,Male,Right,Mouse,Corrected,2021-04-06_01h52.11.266,facelocalization,2020.1.2,Win32,60,0.338888907,0.013888882,1,0,0,0.86495,4,0,28,28,0,1,1
,,,,,,0.143518534,0.00277777,1,0,0,0.68127,M,,,,,,-0.347724,-0.093168,,jy,3032750736,21,Male,Right,Mouse,Corrected,2021-04-06_01h52.11.266,facelocalization,2020.1.2,Win32,60,-0.347222214,-0.092592601,1,0,0,0.81422,11,0,29,29,122,1,3
,,,,,,0.106481496,0.006481474,1,0,0,0.664305,M,,,,,,-0.285606,0.21915,,jy,3032750736,21,Male,Right,Mouse,Corrected,2021-04-06_01h52.11.266,facelocalization,2020.1.2,Win32,60,-0.27592586,0.195370366,1,0,0,0.86392,5,0,30,30,67,1,2
,,,,,,-0.150925858,-0.012037045,1,0,0,0.49882,F,,,,,,-0.347724,-0.093168,,jy,3032750736,21,Male,Right,Mouse,Corrected,2021-04-06_01h52.11.266,facelocalization,2020.1.2,Win32,60,-0.349074066,-0.114814824,1,0,0,0.897365,4,0,31,31,26,1,1
,,,,,,0.148148164,-0.006481489,1,0,0,0.648055,M,,,,,,-0.31176,-0.18,,jy,3032750736,21,Male,Right,Mouse,Corrected,2021-04-06_01h52.11.266,facelocalization,2020.1.2,Win32,60,-0.345370362,-0.194444455,1,0,0,0.763895,29,0,32,32,364,1,8
,,,,,,0.137962978,-0.007407415,1,0,0,1.063405,M,,,,,,0.332586,-0.137754,,jy,3032750736,21,Male,Right,Mouse,Corrected,2021-04-06_01h52.11.266,facelocalization,2020.1.2,Win32,60,0.332407539,-0.162037047,1,0,0,0.71454,10,0,33,33,141,1,3
,,,,,,0.150000015,0.012962956,1,0,0,0.730665,M,,,,,,-0.093168,0.347724,,jy,3032750736,21,Male,Right,Mouse,Corrected,2021-04-06_01h52.11.266,facelocalization,2020.1.2,Win32,60,-0.113888821,0.299074071,1,0,0,0.731095,5,0,34,34,62,1,2
,,,,,,-0.162962952,-0.015740748,1,0,0,0.598675,F,,,,,,0.04698,0.356904,,jy,3032750736,21,Male,Right,Mouse,Corrected,2021-04-06_01h52.11.266,facelocalization,2020.1.2,Win32,60,0.033333347,0.324074071,1,0,0,0.63103,29,0,35,35,347,1,8
,,,,,,0.152777793,-0.016666674,1,0,0,0.714745,M,,,,,,-0.285606,0.21915,,jy,3032750736,21,Male,Right,Mouse,Corrected,2021-04-06_01h52.11.266,facelocalization,2020.1.2,Win32,60,-0.278703695,0.173148143,1,0,0,0.73056,27,0,36,36,307,1,7
,,,,,,-0.13240734,-0.002777785,1,0,0,0.565105,F,,,,,,-0.18,0.31176,,jy,3032750736,21,Male,Right,Mouse,Corrected,2021-04-06_01h52.11.266,facelocalization,2020.1.2,Win32,60,-0.163888878,0.275925923,1,0,0,0.797315,8,0,37,37,64,1,2
,,,,,,0.128703719,-0.033333341,1,0,0,0.631325,M,,,,,,-0.093168,0.347724,,jy,3032750736,21,Male,Right,Mouse,Corrected,2021-04-06_01h52.11.266,facelocalization,2020.1.2,Win32,60,-0.052777765,0.304629627,1,0,0,0.76407,12,0,38,38,110,1,3
,,,,,,0.115740756,-0.016666674,1,0,0,0.48094,M,,,,,,0.04698,0.356904,,jy,3032750736,21,Male,Right,Mouse,Corrected,2021-04-06_01h52.11.266,facelocalization,2020.1.2,Win32,60,0.052777848,0.266666663,1,0,0,0.664995,6,0,39,39,59,1,2
,,,,,,-0.149999989,0.009259252,1,0,0,0.664815,F,,,,,,0.285606,0.21915,,jy,3032750736,21,Male,Right,Mouse,Corrected,2021-04-06_01h52.11.266,facelocalization,2020.1.2,Win32,60,0.271296314,0.16944444,1,0,0,0.880075,11,0,40,40,101,1,3
,,,,,,-0.1611111,-0.012037045,1,0,0,0.5978,F,,,,,,-0.04698,-0.356904,,jy,3032750736,21,Male,Right,Mouse,Corrected,2021-04-06_01h52.11.266,facelocalization,2020.1.2,Win32,60,-0.04259258,-0.344444514,1,0,0,0.781285,27,0,41,41,323,1,7
,,,,,,-0.1361111,0.022222215,1,0,0,0.548525,F,,,,,,-0.21915,-0.285606,,jy,3032750736,21,Male,Right,Mouse,Corrected,2021-04-06_01h52.11.266,facelocalization,2020.1.2,Win32,60,-0.238888823,-0.279629698,1,0,0,0.94684,17,0,42,42,223,1,5
,,,,,,-0.158333322,0.026851817,1,0,0,0.66506,F,,,,,,0.356904,-0.04698,,jy,3032750736,21,Male,Right,Mouse,Corrected,2021-04-06_01h52.11.266,facelocalization,2020.1.2,Win32,60,0.373148167,-0.064814823,1,0,0,0.897165,18,0,43,43,239,1,5
,,,,,,0.121296311,-0.010185193,1,0,0,0.531745,M,,,,,,0.347724,0.093168,,jy,3032750736,21,Male,Right,Mouse,Corrected,2021-04-06_01h52.11.266,facelocalization,2020.1.2,Win32,60,0.32685187,0.065740734,1,0,0,0.8634,31,0,44,44,338,1,8
,,,,,,-0.163888878,0.006481474,1,0,0,0.61487,F,,,,,,0.18,-0.31176,,jy,3032750736,21,Male,Right,Mouse,Corrected,2021-04-06_01h52.11.266,facelocalization,2020.1.2,Win32,60,0.17870372,-0.325000012,1,0,0,0.698125,12,0,45,45,136,1,3
,,,,,,0.147222238,-0.009259267,1,0,0,0.5984,M,,,,,,-0.36,0,,jy,3032750736,21,Male,Right,Mouse,Corrected,2021-04-06_01h52.11.266,facelocalization,2020.1.2,Win32,60,-0.337037029,-0.02685186,1,0,0,0.731625,7,0,46,46,72,1,2
,,,,,,0.112037052,-0.018518526,1,0,0,0.697615,M,,,,,,-0.332586,-0.137754,,jy,3032750736,21,Male,Right,Mouse,Corrected,2021-04-06_01h52.11.266,facelocalization,2020.1.2,Win32,60,-0.312962954,-0.160185195,1,0,0,0.8977,15,0,47,47,171,1,4
,,,,,,-0.124999989,0.016666659,1,0,0,0.697695,F,,,,,,0.285606,0.21915,,jy,3032750736,21,Male,Right,Mouse,Corrected,2021-04-06_01h52.11.266,facelocalization,2020.1.2,Win32,60,0.269444462,0.212962959,1,0,0,0.814685,3,0,48,48,5,1,1
,,,,,,-0.150925858,0.014814808,1,0,0,0.54796,F,,,,,,-0.356904,-0.04698,,jy,3032750736,21,Male,Right,Mouse,Corrected,2021-04-06_01h52.11.266,facelocalization,2020.1.2,Win32,60,-0.356481474,-0.054629638,1,0,0,0.847275,23,0,49,49,265,1,6
,,,,,,0.130555571,0.017592585,1,0,0,0.498085,M,,,,,,0,-0.36,,jy,3032750736,21,Male,Right,Mouse,Corrected,2021-04-06_01h52.11.266,facelocalization,2020.1.2,Win32,60,0.018518532,-0.335185254,1,0,0,2.160445,11,0,50,50,132,1,3
,,,,,,-0.144444433,0.000925918,1,0,0,0.51555,F,,,,,,-0.356904,0.04698,,jy,3032750736,21,Male,Right,Mouse,Corrected,2021-04-06_01h52.11.266,facelocalization,2020.1.2,Win32,60,-0.367592585,0.040740706,1,0,0,0.83061,30,0,51,51,359,1,8
,,,,,,-0.137036969,-0.000925933,1,0,0,0.664435,F,,,,,,0.18,-0.31176,,jy,3032750736,21,Male,Right,Mouse,Corrected,2021-04-06_01h52.11.266,facelocalization,2020.1.2,Win32,60,0.186111127,-0.301851864,1,0,0,0.88107,30,0,52,52,376,1,8
,,,,,,0.163888905,-0.006481489,1,0,0,0.481915,M,,,,,,0.285606,0.21915,,jy,3032750736,21,Male,Right,Mouse,Corrected,2021-04-06_01h52.11.266,facelocalization,2020.1.2,Win32,60,0.315740759,0.18518518,1,0,0,0.8642,25,0,53,53,293,1,7
,,,,,,-0.164814748,-0.036111119,1,0,0,0.61462,F,,,,,,-0.093168,-0.347724,,jy,3032750736,21,Male,Right,Mouse,Corrected,2021-04-06_01h52.11.266,facelocalization,2020.1.2,Win32,60,-0.129629618,-0.379629643,1,0,0,0.914135,27,0,54,54,322,1,7
,,,,,,0.17870372,0.001851844,1,0,0,0.565105,M,,,,,,0.356904,0.04698,,jy,3032750736,21,Male,Right,Mouse,Corrected,2021-04-06_01h52.11.266,facelocalization,2020.1.2,Win32,60,0.373148167,0.036111076,1,0,0,0.76433,6,0,55,55,49,1,2
,,,,,,0.148148164,-0.001851859,1,0,0,0.5646,M,,,,,,-0.347724,-0.093168,,jy,3032750736,21,Male,Right,Mouse,Corrected,2021-04-06_01h52.11.266,facelocalization,2020.1.2,Win32,60,-0.34351851,-0.083333342,1,0,0,0.79774,28,0,56,56,314,1,7
,,,,,,-0.179629619,-0.003703711,1,0,0,0.582055,F,,,,,,0.332586,-0.137754,,jy,3032750736,21,Male,Right,Mouse,Corrected,2021-04-06_01h52.11.266,facelocalization,2020.1.2,Win32,60,0.336111129,-0.182407474,1,0,0,0.830045,4,0,57,57,45,1,1
,,,,,,0.146296312,-0.014814822,1,0,0,0.764375,M,,,,,,-0.347724,0.093168,,jy,3032750736,21,Male,Right,Mouse,Corrected,2021-04-06_01h52.11.266,facelocalization,2020.1.2,Win32,60,-0.376851844,0.103703698,1,0,0,0.731055,29,0,58,58,358,1,8
,,,,,,0.14907409,0.001851844,1,0,0,0.714665,M,,,,,,-0.332586,0.137754,,jy,3032750736,21,Male,Right,Mouse,Corrected,2021-04-06_01h52.11.266,facelocalization,2020.1.2,Win32,60,-0.337037029,0.1333333,1,0,0,0.897315,28,0,59,59,309,1,7
,,,,,,-0.134259248,0.005555548,1,0,0,0.714155,F,,,,,,0.254556,-0.254556,,jy,3032750736,21,Male,Right,Mouse,Corrected,2021-04-06_01h52.11.266,facelocalization,2020.1.2,Win32,60,0.244444461,-0.281481493,1,0,0,0.665025,4,0,60,60,42,1,1
,,,,,,0.14907409,0.0074074,1,0,0,0.83128,M,,,,,,-0.347724,0.093168,,jy,3032750736,21,Male,Right,Mouse,Corrected,2021-04-06_01h52.11.266,facelocalization,2020.1.2,Win32,60,-0.34351851,0.073148114,1,0,0,0.94731,12,0,61,61,118,1,3
,,,,,,-0.137962952,0.019444437,1,0,0,0.53182,F,,,,,,-0.137754,0.332586,,jy,3032750736,21,Male,Right,Mouse,Corrected,2021-04-06_01h52.11.266,facelocalization,2020.1.2,Win32,60,-0.160185118,0.284259242,1,0,0,0.863635,20,0,62,62,207,1,5
,,,,,,-0.187962896,0.01203703,1,0,0,0.84752,F,,,,,,0.31176,-0.18,,jy,3032750736,21,Male,Right,Mouse,Corrected,2021-04-06_01h52.11.266,facelocalization,2020.1.2,Win32,60,0.276851869,-0.185185195,1,0,0,0.86392,14,0,63,63,188,1,4
,,,,,,0.118518534,-0.009259267,1,0,0,0.79788,M,,,,,,-0.347724,0.093168,,jy,3032750736,21,Male,Right,Mouse,Corrected,2021-04-06_01h52.11.266,facelocalization,2020.1.2,Win32,60,-0.292592584,0.084259253,1,0,0,0.79746,25,0,64,64,310,1,7
,,,,,,-0.149074063,0.005555548,1,0,0,0.63173,F,,,,,,-0.356904,0.04698,,jy,3032750736,21,Male,Right,Mouse,Corrected,2021-04-06_01h52.11.266,facelocalization,2020.1.2,Win32,60,-0.34351851,0.034259252,1,0,0,0.930135,23,0,65,65,263,1,6
,,,,,,-0.157407397,0.013888882,1,0,0,0.64854,F,,,,,,0.31176,-0.18,,jy,3032750736,21,Male,Right,Mouse,Corrected,2021-04-06_01h52.11.266,facelocalization,2020.1.2,Win32,60,0.306481499,-0.171296306,1,0,0,0.83065,9,0,66,66,140,1,3
,,,,,,-0.167592582,0.014814808,1,0,0,0.731375,F,,,,,,0,0.36,,jy,3032750736,21,Male,Right,Mouse,Corrected,2021-04-06_01h52.11.266,facelocalization,2020.1.2,Win32,60,-0.013888876,0.311111108,1,0,0,0.763965,4,0,67,67,12,1,1
,,,,,,0.14444446,-0.010185193,1,0,0,0.665135,M,,,,,,-0.137754,-0.332586,,jy,3032750736,21,Male,Right,Mouse,Corrected,2021-04-06_01h52.11.266,facelocalization,2020.1.2,Win32,60,-0.14074073,-0.328703716,1,0,0,0.86446,29,0,68,68,369,1,8
,,,,,,0.147222238,-7.4558E-09,1,0,0,0.54846,M,,,,,,0.254556,0.254556,,jy,3032750736,21,Male,Right,Mouse,Corrected,2021-04-06_01h52.11.266,facelocalization,2020.1.2,Win32,60,0.244444461,0.232407403,1,0,0,0.880475,11,0,69,69,102,1,3
,,,,,,0.137962978,0.013888882,1,0,0,0.565225,M,,,,,,0.36,0,,jy,3032750736,21,Male,Right,Mouse,Corrected,2021-04-06_01h52.11.266,facelocalization,2020.1.2,Win32,60,0.3564815,-0.021296304,1,0,0,0.797045,25,0,70,70,288,1,7
,,,,,,0.157407423,-0.003703711,1,0,0,0.681175,M,,,,,,-0.36,0,,jy,3032750736,21,Male,Right,Mouse,Corrected,2021-04-06_01h52.11.266,facelocalization,2020.1.2,Win32,60,-0.347222214,-0.000925933,1,0,0,1.03036,28,0,71,71,312,1,7
,,,,,,0.162962979,0.003703696,1,0,0,0.680965,M,,,,,,-0.356904,0.04698,,jy,3032750736,21,Male,Right,Mouse,Corrected,2021-04-06_01h52.11.266,facelocalization,2020.1.2,Win32,60,-0.316666658,0.018518511,1,0,0,1.24642,1,0,72,72,23,1,1
,,,,,,0.147222238,-7.4558E-09,1,0,0,0.63109,M,,,,,,0.093168,0.347724,,jy,3032750736,21,Male,Right,Mouse,Corrected,2021-04-06_01h52.11.266,facelocalization,2020.1.2,Win32,60,0.091666681,0.309259256,1,0,0,0.83118,6,0,73,73,58,1,2
,,,,,,-0.139814804,0.010185178,1,0,0,0.614965,F,,,,,,0.21915,0.285606,,jy,3032750736,21,Male,Right,Mouse,Corrected,2021-04-06_01h52.11.266,facelocalization,2020.1.2,Win32,60,0.216666683,0.224999996,1,0,0,0.664215,23,0,74,74,247,1,6
,,,,,,-0.154629619,-0.008333341,1,0,0,0.547825,F,,,,,,-0.254556,-0.254556,,jy,3032750736,21,Male,Right,Mouse,Corrected,2021-04-06_01h52.11.266,facelocalization,2020.1.2,Win32,60,-0.265740731,-0.250000011,1,0,0,1.611945,18,0,75,75,222,1,5
,,,,,,0.141666682,0.004629622,1,0,0,0.6981,M,,,,,,0.04698,-0.356904,,jy,3032750736,21,Male,Right,Mouse,Corrected,2021-04-06_01h52.11.266,facelocalization,2020.1.2,Win32,60,0.039814829,-0.372222292,1,0,0,1.096855,10,0,76,76,133,1,3
,,,,,,0.148148164,-0.013888897,1,0,0,0.647595,M,,,,,,0.356904,0.04698,,jy,3032750736,21,Male,Right,Mouse,Corrected,2021-04-06_01h52.11.266,facelocalization,2020.1.2,Win32,60,0.352777796,0.049074067,1,0,0,0.781365,32,0,77,77,337,1,8
,,,,,,0.137037052,0.001851844,1,0,0,0.714615,M,,,,,,-0.254556,-0.254556,,jy,3032750736,21,Male,Right,Mouse,Corrected,2021-04-06_01h52.11.266,facelocalization,2020.1.2,Win32,60,-0.262962954,-0.252777789,1,0,0,0.91389,10,0,78,78,126,1,3
,,,,,,0.142592608,0.000925918,1,0,0,0.54814,M,,,,,,0.093168,0.347724,,jy,3032750736,21,Male,Right,Mouse,Corrected,2021-04-06_01h52.11.266,facelocalization,2020.1.2,Win32,60,0.097222237,0.281481478,1,0,0,0.84793,11,0,79,79,106,1,3
,,,,,,0.143518534,-0.004629637,1,0,0,0.59834,M,,,,,,-0.332586,0.137754,,jy,3032750736,21,Male,Right,Mouse,Corrected,2021-04-06_01h52.11.266,facelocalization,2020.1.2,Win32,60,-0.289814749,0.099999994,1,0,0,0.74808,9,0,80,80,117,1,3
,,,,,,0.14907409,-0.02685186,1,0,0,0.96445,M,,,,,,-0.137754,0.332586,,jy,3032750736,21,Male,Right,Mouse,Corrected,2021-04-06_01h52.11.266,facelocalization,2020.1.2,Win32,60,-0.128703692,0.302777761,1,0,0,0.74718,22,0,81,81,255,1,6
,,,,,,0.140740756,0.00277777,1,0,0,0.565045,M,,,,,,0.04698,0.356904,,jy,3032750736,21,Male,Right,Mouse,Corrected,2021-04-06_01h52.11.266,facelocalization,2020.1.2,Win32,60,0.019444458,0.362962961,1,0,0,0.66441,21,0,82,82,251,1,6
,,,,,,0.145370386,0.001851844,1,0,0,0.5318,M,,,,,,0.21915,-0.285606,,jy,3032750736,21,Male,Right,Mouse,Corrected,2021-04-06_01h52.11.266,facelocalization,2020.1.2,Win32,60,0.19907409,-0.287037049,1,0,0,0.81418,9,0,83,83,137,1,3
,,,,,,0.176851868,0.010185178,1,0,0,0.498555,M,,,,,,0.347724,0.093168,,jy,3032750736,21,Male,Right,Mouse,Corrected,2021-04-06_01h52.11.266,facelocalization,2020.1.2,Win32,60,0.338888907,0.085185179,1,0,0,0.631405,26,0,84,84,290,1,7
,,,,,,0.143518534,-7.4558E-09,1,0,0,0.66481,M,,,,,,-0.04698,-0.356904,,jy,3032750736,21,Male,Right,Mouse,Corrected,2021-04-06_01h52.11.266,facelocalization,2020.1.2,Win32,60,-0.062962894,-0.370370383,1,0,0,0.698015,2,0,85,85,35,1,1
,,,,,,0.153703719,0.022222215,1,0,0,0.54921,M,,,,,,-0.093168,-0.347724,,jy,3032750736,21,Male,Right,Mouse,Corrected,2021-04-06_01h52.11.266,facelocalization,2020.1.2,Win32,60,-0.074999988,-0.33240742,1,0,0,0.863725,7,0,86,86,82,1,2
,,,,,,0.14444446,0.003703696,1,0,0,0.64811,M,,,,,,-0.04698,0.356904,,jy,3032750736,21,Male,Right,Mouse,Corrected,2021-04-06_01h52.11.266,facelocalization,2020.1.2,Win32,60,-0.063888877,0.341666664,1,0,0,0.747275,16,0,87,87,157,1,4
,,,,,,0.138888904,-0.001851859,1,0,0,0.59805,M,,,,,,-0.093168,-0.347724,,jy,3032750736,21,Male,Right,Mouse,Corrected,2021-04-06_01h52.11.266,facelocalization,2020.1.2,Win32,60,-0.073148136,-0.353703773,1,0,0,0.79733,22,0,88,88,274,1,6
,,,,,,0.122222237,0.001851844,1,0,0,0.664425,M,,,,,,-0.18,0.31176,,jy,3032750736,21,Male,Right,Mouse,Corrected,2021-04-06_01h52.11.266,facelocalization,2020.1.2,Win32,60,-0.137036969,0.309259256,1,0,0,0.68139,12,0,89,89,112,1,3
,,,,,,0.137037052,0.010185178,1,0,0,0.581345,M,,,,,,0,0.36,,jy,3032750736,21,Male,Right,Mouse,Corrected,2021-04-06_01h52.11.266,facelocalization,2020.1.2,Win32,60,-0.038888876,0.37222222,1,0,0,0.89699,5,0,90,90,60,1,2
,,,,,,-0.13240734,0.024999993,1,0,0,1.21329,F,,,,,,0.18,0.31176,,jy,3032750736,21,Male,Right,Mouse,Corrected,2021-04-06_01h52.11.266,facelocalization,2020.1.2,Win32,60,0.191666683,0.274999983,1,0,0,0.731215,24,0,91,91,248,1,6
,,,,,,-0.1361111,-0.011111119,1,0,0,0.648395,F,,,,,,-0.18,-0.31176,,jy,3032750736,21,Male,Right,Mouse,Corrected,2021-04-06_01h52.11.266,facelocalization,2020.1.2,Win32,60,-0.197222155,-0.324074086,1,0,0,0.81406,10,0,92,92,128,1,3
,,,,,,0.140740756,0.00277777,1,0,0,0.66463,M,,,,,,-0.18,0.31176,,jy,3032750736,21,Male,Right,Mouse,Corrected,2021-04-06_01h52.11.266,facelocalization,2020.1.2,Win32,60,-0.171296286,0.273148145,1,0,0,0.797315,31,0,93,93,352,1,8
,,,,,,0.141666682,0.024999993,1,0,0,0.53183,M,,,,,,-0.254556,-0.254556,,jy,3032750736,21,Male,Right,Mouse,Corrected,2021-04-06_01h52.11.266,facelocalization,2020.1.2,Win32,60,-0.206481415,-0.262037048,1,0,0,1.528685,1,0,94,94,30,1,1
,,,,,,-0.130555544,0.005555548,1,0,0,0.597835,F,,,,,,-0.285606,0.21915,,jy,3032750736,21,Male,Right,Mouse,Corrected,2021-04-06_01h52.11.266,facelocalization,2020.1.2,Win32,60,-0.237962953,0.207407403,1,0,0,0.830715,10,0,95,95,115,1,3
,,,,,,-0.174999989,-7.4558E-09,1,0,0,0.54845,F,,,,,,-0.36,0,,jy,3032750736,21,Male,Right,Mouse,Corrected,2021-04-06_01h52.11.266,facelocalization,2020.1.2,Win32,60,-0.346296288,0.008333326,1,0,0,0.947335,3,0,96,96,24,1,1
,,,,,,-0.14074073,-0.004629637,1,0,0,0.498165,F,,,,,,-0.21915,0.285606,,jy,3032750736,21,Male,Right,Mouse,Corrected,2021-04-06_01h52.11.266,facelocalization,2020.1.2,Win32,60,-0.224074064,0.245370367,1,0,0,0.73079,1,0,97,97,17,1,1
,,,,,,-0.138888878,0.003703696,1,0,0,0.56524,F,,,,,,0.04698,-0.356904,,jy,3032750736,21,Male,Right,Mouse,Corrected,2021-04-06_01h52.11.266,facelocalization,2020.1.2,Win32,60,0.054629644,-0.35740742,1,0,0,0.730425,3,0,98,98,37,1,1
,,,,,,-0.13148147,0.010185178,1,0,0,0.614935,F,,,,,,0,0.36,,jy,3032750736,21,Male,Right,Mouse,Corrected,2021-04-06_01h52.11.266,facelocalization,2020.1.2,Win32,60,-0.016666597,0.324999997,1,0,0,0.731275,10,0,99,99,108,1,3
,,,,,,0.168518534,0.003703696,1,0,0,0.44868,M,,,,,,0.347724,-0.093168,,jy,3032750736,21,Male,Right,Mouse,Corrected,2021-04-06_01h52.11.266,facelocalization,2020.1.2,Win32,60,0.321296314,-0.108333399,1,0,0,0.780855,9,0,100,100,142,1,3
,,,,,,0.148148164,-0.012037045,1,0,0,0.5982,M,,,,,,-0.04698,0.356904,,jy,3032750736,21,Male,Right,Mouse,Corrected,2021-04-06_01h52.11.266,facelocalization,2020.1.2,Win32,60,-0.065740728,0.336111109,1,0,0,0.831025,17,0,101,101,205,1,5
,,,,,,0.157407423,0.0074074,1,0,0,0.548445,M,,,,,,0.356904,0.04698,,jy,3032750736,21,Male,Right,Mouse,Corrected,2021-04-06_01h52.11.266,facelocalization,2020.1.2,Win32,60,0.346296428,0.049074067,1,0,0,0.63119,21,0,102,102,241,1,6
,,,,,,0.088888903,0.0074074,1,0,0,0.565445,M,,,,,,-0.18,0.31176,,jy,3032750736,21,Male,Right,Mouse,Corrected,2021-04-06_01h52.11.266,facelocalization,2020.1.2,Win32,60,-0.183333266,0.263888885,1,0,0,0.66452,23,0,103,103,256,1,6
,,,,,,0.153703719,-0.002777785,1,0,0,1.01398,M,,,,,,0.347724,0.093168,,jy,3032750736,21,Male,Right,Mouse,Corrected,2021-04-06_01h52.11.266,facelocalization,2020.1.2,Win32,60,0.354629648,0.087962957,1,0,0,0.89754,15,0,104,104,146,1,4
,,,,,,0.125000015,-0.012962971,1,0,0,0.548555,M,,,,,,-0.093168,-0.347724,,jy,3032750736,21,Male,Right,Mouse,Corrected,2021-04-06_01h52.11.266,facelocalization,2020.1.2,Win32,60,-0.090740672,-0.351851865,1,0,0,0.697355,15,0,105,105,178,1,4
,,,,,,0.163888905,0.017592585,1,0,0,0.53163,M,,,,,,-0.356904,0.04698,,jy,3032750736,21,Male,Right,Mouse,Corrected,2021-04-06_01h52.11.266,facelocalization,2020.1.2,Win32,60,-0.330555547,0.049999965,1,0,0,0.81441,11,0,106,106,119,1,3
,,,,,,-0.14074073,0.021296289,1,0,0,0.69788,F,,,,,,0.254556,-0.254556,,jy,3032750736,21,Male,Right,Mouse,Corrected,2021-04-06_01h52.11.266,facelocalization,2020.1.2,Win32,60,0.263888906,-0.261111179,1,0,0,0.71417,24,0,107,107,282,1,6
,,,,,,0.150925941,0.022222215,1,0,0,0.49871,M,,,,,,-0.31176,-0.18,,jy,3032750736,21,Male,Right,Mouse,Corrected,2021-04-06_01h52.11.266,facelocalization,2020.1.2,Win32,60,-0.307407399,-0.196296363,1,0,0,0.66483,5,0,108,108,76,1,2
,,,,,,-0.164814748,0.024999993,1,0,0,0.497805,F,,,,,,-0.093168,-0.347724,,jy,3032750736,21,Male,Right,Mouse,Corrected,2021-04-06_01h52.11.266,facelocalization,2020.1.2,Win32,60,-0.089814803,-0.328703716,1,0,0,0.764465,32,0,109,109,370,1,8
,,,,,,-0.144444433,0.008333326,1,0,0,1.196065,F,,,,,,-0.04698,0.356904,,jy,3032750736,21,Male,Right,Mouse,Corrected,2021-04-06_01h52.11.266,facelocalization,2020.1.2,Win32,60,-0.048148136,0.359259257,1,0,0,0.714875,7,0,110,110,61,1,2
,,,,,,-0.155555488,-0.004629637,1,0,0,0.54825,F,,,,,,0.347724,0.093168,,jy,3032750736,21,Male,Right,Mouse,Corrected,2021-04-06_01h52.11.266,facelocalization,2020.1.2,Win32,60,0.358333352,0.078703697,1,0,0,0.830565,1,0,111,111,2,1,1
,,,,,,0.120370385,0.001851844,1,0,0,0.51484,M,,,,,,0.137754,-0.332586,,jy,3032750736,21,Male,Right,Mouse,Corrected,2021-04-06_01h52.11.266,facelocalization,2020.1.2,Win32,60,0.123148163,-0.331481494,1,0,0,0.78096,21,0,112,112,279,1,6
,,,,,,-0.16574073,-0.031481489,1,0,0,0.548525,F,,,,,,0.285606,0.21915,,jy,3032750736,21,Male,Right,Mouse,Corrected,2021-04-06_01h52.11.266,facelocalization,2020.1.2,Win32,60,0.282407425,0.213888885,1,0,0,0.746965,23,0,113,113,245,1,6
,,,,,,0.136111126,0.020370363,1,0,0,0.681505,M,,,,,,-0.093168,0.347724,,jy,3032750736,21,Male,Right,Mouse,Corrected,2021-04-06_01h52.11.266,facelocalization,2020.1.2,Win32,60,-0.147222211,0.325925909,1,0,0,0.69683,26,0,114,114,302,1,7
,,,,,,0.113888904,0.012962956,1,0,0,0.664355,M,,,,,,-0.285606,0.21915,,jy,3032750736,21,Male,Right,Mouse,Corrected,2021-04-06_01h52.11.266,facelocalization,2020.1.2,Win32,60,-0.310185177,0.199999996,1,0,0,0.748065,32,0,115,115,355,1,8
,,,,,,0.127777793,0.017592585,1,0,0,0.498315,M,,,,,,-0.18,0.31176,,jy,3032750736,21,Male,Right,Mouse,Corrected,2021-04-06_01h52.11.266,facelocalization,2020.1.2,Win32,60,-0.212037027,0.28796296,1,0,0,0.74799,19,0,116,116,208,1,5
,,,,,,-0.143518507,-0.002777785,1,0,0,0.53206,F,,,,,,0.332586,0.137754,,jy,3032750736,21,Male,Right,Mouse,Corrected,2021-04-06_01h52.11.266,facelocalization,2020.1.2,Win32,60,0.3314815,0.110185151,1,0,0,0.714565,2,0,117,117,3,1,1
,,,,,,-0.157407397,0.023148141,1,0,0,0.532025,F,,,,,,0.31176,-0.18,,jy,3032750736,21,Male,Right,Mouse,Corrected,2021-04-06_01h52.11.266,facelocalization,2020.1.2,Win32,60,0.28796298,-0.143518528,1,0,0,0.58139,2,0,118,118,44,1,1
,,,,,,-0.146296229,0.010185178,1,0,0,0.59782,F,,,,,,-0.21915,0.285606,,jy,3032750736,21,Male,Right,Mouse,Corrected,2021-04-06_01h52.11.266,facelocalization,2020.1.2,Win32,60,-0.206481415,0.276851849,1,0,0,0.764115,28,0,119,119,305,1,7
,,,,,,-0.173148137,-0.0175926,1,0,0,0.54834,F,,,,,,0.356904,-0.04698,,jy,3032750736,21,Male,Right,Mouse,Corrected,2021-04-06_01h52.11.266,facelocalization,2020.1.2,Win32,60,0.345370389,-0.049074082,1,0,0,0.79736,31,0,120,120,383,1,8
,,,,,,-0.157407397,0.034259252,1,0,0,0.76292,F,,,,,,0.04698,0.356904,,jy,3032750736,21,Male,Right,Mouse,Corrected,2021-04-06_01h52.11.266,facelocalization,2020.1.2,Win32,60,0.076851866,0.395370369,1,0,0,0.53103,18,0,121,121,203,1,5
,,,,,,0.143518534,-7.4558E-09,1,0,0,0.51467,M,,,,,,0.254556,0.254556,,jy,3032750736,21,Male,Right,Mouse,Corrected,2021-04-06_01h52.11.266,facelocalization,2020.1.2,Win32,60,0.247222239,0.224999996,1,0,0,0.69813,31,0,122,122,342,1,8
,,,,,,0.165740756,0.010185178,1,0,0,1.04709,M,,,,,,0.093168,-0.347724,,jy,3032750736,21,Male,Right,Mouse,Corrected,2021-04-06_01h52.11.266,facelocalization,2020.1.2,Win32,60,0.096296311,-0.347222235,1,0,0,0.84674,7,0,123,123,86,1,2
,,,,,,0.119444459,0.035185178,1,0,0,0.531695,M,,,,,,0.04698,0.356904,,jy,3032750736,21,Male,Right,Mouse,Corrected,2021-04-06_01h52.11.266,facelocalization,2020.1.2,Win32,60,-0.001851839,0.339814798,1,0,0,0.66442,1,0,124,124,11,1,1
,,,,,,-0.13148147,0.009259252,1,0,0,0.51525,F,,,,,,0.31176,-0.18,,jy,3032750736,21,Male,Right,Mouse,Corrected,2021-04-06_01h52.11.266,facelocalization,2020.1.2,Win32,60,0.294444462,-0.189814825,1,0,0,0.73064,19,0,125,125,236,1,5
,,,,,,0.185185201,0.001851844,1,0,0,0.4488,M,,,,,,0.31176,0.18,,jy,3032750736,21,Male,Right,Mouse,Corrected,2021-04-06_01h52.11.266,facelocalization,2020.1.2,Win32,60,0.321296314,0.163888884,1,0,0,0.648215,9,0,126,126,100,1,3
,,,,,,0.151851867,-0.007407415,1,0,0,0.847495,M,,,,,,-0.254556,-0.254556,,jy,3032750736,21,Male,Right,Mouse,Corrected,2021-04-06_01h52.11.266,facelocalization,2020.1.2,Win32,60,-0.222222212,-0.248148159,1,0,0,0.630955,23,0,127,127,270,1,6
,,,,,,0.138888904,-0.011111119,1,0,0,0.59837,M,,,,,,-0.285606,0.21915,,jy,3032750736,21,Male,Right,Mouse,Corrected,2021-04-06_01h52.11.266,facelocalization,2020.1.2,Win32,60,-0.28425925,0.208333329,1,0,0,0.79709,1,0,128,128,19,1,1
,,,,,,-0.12777771,-0.004629637,1,0,0,0.565275,F,,,,,,0.356904,-0.04698,,jy,3032750736,21,Male,Right,Mouse,Corrected,2021-04-06_01h52.11.266,facelocalization,2020.1.2,Win32,60,0.362037056,-0.045370378,1,0,0,0.63104,24,0,129,129,287,1,6
,,,,,,0.168518534,0.013888882,1,0,0,0.415565,M,,,,,,0.356904,-0.04698,,jy,3032750736,21,Male,Right,Mouse,Corrected,2021-04-06_01h52.11.266,facelocalization,2020.1.2,Win32,60,0.311111129,-0.062037045,1,0,0,0.780595,5,0,130,130,95,1,2
,,,,,,-0.159259248,0.0074074,1,0,0,0.43174,F,,,,,,-0.137754,0.332586,,jy,3032750736,21,Male,Right,Mouse,Corrected,2021-04-06_01h52.11.266,facelocalization,2020.1.2,Win32,60,-0.157407397,0.324999997,1,0,0,0.78069,4,0,131,131,15,1,1
,,,,,,-0.145370359,-0.015740748,1,0,0,0.631685,F,,,,,,-0.137754,-0.332586,,jy,3032750736,21,Male,Right,Mouse,Corrected,2021-04-06_01h52.11.266,facelocalization,2020.1.2,Win32,60,-0.145370359,-0.338888901,1,0,0,0.79728,3,0,132,132,33,1,1
,,,,,,-0.173148137,0.00277777,1,0,0,0.498465,F,,,,,,0.285606,-0.21915,,jy,3032750736,21,Male,Right,Mouse,Corrected,2021-04-06_01h52.11.266,facelocalization,2020.1.2,Win32,60,0.29259261,-0.192592603,1,0,0,0.9473,2,0,133,133,43,1,1
,,,,,,-0.128703692,0.023148141,1,0,0,0.71468,F,,,,,,-0.21915,-0.285606,,jy,3032750736,21,Male,Right,Mouse,Corrected,2021-04-06_01h52.11.266,facelocalization,2020.1.2,Win32,60,-0.215740674,-0.302777846,1,0,0,0.71416,15,0,134,134,175,1,4
,,,,,,-0.130555544,0.0074074,1,0,0,0.68133,F,,,,,,0.36,0,,jy,3032750736,21,Male,Right,Mouse,Corrected,2021-04-06_01h52.11.266,facelocalization,2020.1.2,Win32,60,0.358333352,-0.013888897,1,0,0,0.880165,29,0,135,135,336,1,8
,,,,,,0.151851867,-0.003703711,1,0,0,0.465725,M,,,,,,0.31176,-0.18,,jy,3032750736,21,Male,Right,Mouse,Corrected,2021-04-06_01h52.11.266,facelocalization,2020.1.2,Win32,60,0.350000018,-0.197222233,1,0,0,0.81399,6,0,136,136,92,1,2
,,,,,,-0.150925858,-0.013888897,1,0,0,0.465435,F,,,,,,-0.137754,0.332586,,jy,3032750736,21,Male,Right,Mouse,Corrected,2021-04-06_01h52.11.266,facelocalization,2020.1.2,Win32,60,-0.13240734,0.314814812,1,0,0,0.81431,16,0,137,137,159,1,4
,,,,,,-0.147222211,-0.012037045,1,0,0,0.880515,F,,,,,,-0.254556,0.254556,,jy,3032750736,21,Male,Right,Mouse,Corrected,2021-04-06_01h52.11.266,facelocalization,2020.1.2,Win32,60,-0.238888823,0.240740737,1,0,0,0.797715,25,0,138,138,306,1,7
,,,,,,-0.125925915,-0.000925933,1,0,0,0.481555,F,,,,,,-0.21915,0.285606,,jy,3032750736,21,Male,Right,Mouse,Corrected,2021-04-06_01h52.11.266,facelocalization,2020.1.2,Win32,60,-0.214814805,0.250925922,1,0,0,0.664875,9,0,139,139,113,1,3
,,,,,,-0.16574073,0.016666659,1,0,0,0.681145,F,,,,,,0.285606,-0.21915,,jy,3032750736,21,Male,Right,Mouse,Corrected,2021-04-06_01h52.11.266,facelocalization,2020.1.2,Win32,60,0.263888906,-0.216666677,1,0,0,0.84767,19,0,140,140,235,1,5
,,,,,,-0.135185174,0.001851844,1,0,0,0.564585,F,,,,,,-0.347724,-0.093168,,jy,3032750736,21,Male,Right,Mouse,Corrected,2021-04-06_01h52.11.266,facelocalization,2020.1.2,Win32,60,-0.314814806,-0.07685186,1,0,0,0.748065,18,0,141,141,218,1,5
,,,,,,-0.166666656,0.000925918,1,0,0,0.548615,F,,,,,,0.137754,0.332586,,jy,3032750736,21,Male,Right,Mouse,Corrected,2021-04-06_01h52.11.266,facelocalization,2020.1.2,Win32,60,0.153703719,0.349074058,1,0,0,0.764245,7,0,142,142,57,1,2
,,,,,,-0.13148147,0.012962956,1,0,0,0.632035,F,,,,,,-0.093168,0.347724,,jy,3032750736,21,Male,Right,Mouse,Corrected,2021-04-06_01h52.11.266,facelocalization,2020.1.2,Win32,60,-0.100925914,0.353703702,1,0,0,0.58092,20,0,143,143,206,1,5
,,,,,,-0.122222211,-0.023148156,1,0,0,0.548265,F,,,,,,-0.254556,-0.254556,,jy,3032750736,21,Male,Right,Mouse,Corrected,2021-04-06_01h52.11.266,facelocalization,2020.1.2,Win32,60,-0.258333324,-0.264814826,1,0,0,0.830715,13,0,144,144,174,1,4
,,,,,,0.177777794,-0.002777785,1,0,0,0.46542,M,,,,,,0.254556,-0.254556,,jy,3032750736,21,Male,Right,Mouse,Corrected,2021-04-06_01h52.11.266,facelocalization,2020.1.2,Win32,60,0.277777795,-0.296296308,1,0,0,0.71397,27,0,145,145,330,1,7
,,,,,,0.141666682,0.022222215,1,0,0,0.498335,M,,,,,,-0.04698,-0.356904,,jy,3032750736,21,Male,Right,Mouse,Corrected,2021-04-06_01h52.11.266,facelocalization,2020.1.2,Win32,60,-0.016666597,-0.36203705,1,0,0,0.84719,6,0,146,146,83,1,2
,,,,,,-0.166666656,-7.4558E-09,1,0,0,0.4645,F,,,,,,0,-0.36,,jy,3032750736,21,Male,Right,Mouse,Corrected,2021-04-06_01h52.11.266,facelocalization,2020.1.2,Win32,60,0.004629643,-0.359259272,1,0,0,0.61496,31,0,147,147,372,1,8
,,,,,,0.157407423,-7.4558E-09,1,0,0,0.448355,M,,,,,,0.36,0,,jy,3032750736,21,Male,Right,Mouse,Corrected,2021-04-06_01h52.11.266,facelocalization,2020.1.2,Win32,60,0.323148279,-0.0175926,1,0,0,0.847655,10,0,148,148,96,1,3
,,,,,,0.151851867,0.008333326,1,0,0,0.48222,M,,,,,,0.18,-0.31176,,jy,3032750736,21,Male,Right,Mouse,Corrected,2021-04-06_01h52.11.266,facelocalization,2020.1.2,Win32,60,0.182407423,-0.355555568,1,0,0,0.631005,19,0,149,149,232,1,5
,,,,,,0.172222238,-0.037037045,1,0,0,0.43238,M,,,,,,0.332586,0.137754,,jy,3032750736,21,Male,Right,Mouse,Corrected,2021-04-06_01h52.11.266,facelocalization,2020.1.2,Win32,60,0.31851865,0.136111106,1,0,0,0.56501,23,0,150,150,243,1,6
,,,,,,-0.149074063,-0.010185193,1,0,0,0.53204,F,,,,,,0.332586,-0.137754,,jy,3032750736,21,Male,Right,Mouse,Corrected,2021-04-06_01h52.11.266,facelocalization,2020.1.2,Win32,60,0.327777909,-0.108333399,1,0,0,0.58128,31,0,151,151,381,1,8
,,,,,,-0.144444433,-0.019444452,1,0,0,0.548115,F,,,,,,0.254556,-0.254556,,jy,3032750736,21,Male,Right,Mouse,Corrected,2021-04-06_01h52.11.266,facelocalization,2020.1.2,Win32,60,0.265740758,-0.280555567,1,0,0,0.664645,15,0,152,152,186,1,4
,,,,,,-0.122222211,-0.02685186,1,0,0,0.498425,F,,,,,,-0.332586,0.137754,,jy,3032750736,21,Male,Right,Mouse,Corrected,2021-04-06_01h52.11.266,facelocalization,2020.1.2,Win32,60,-0.322222214,0.12870367,1,0,0,0.63171,2,0,153,153,21,1,1
,,,,,,0.122222237,-0.004629637,1,0,0,0.54826,M,,,,,,-0.254556,0.254556,,jy,3032750736,21,Male,Right,Mouse,Corrected,2021-04-06_01h52.11.266,facelocalization,2020.1.2,Win32,60,-0.251851842,0.252777774,1,0,0,0.76421,22,0,154,154,258,1,6
,,,,,,-0.133333322,-0.000925933,1,0,0,0.448365,F,,,,,,-0.18,-0.31176,,jy,3032750736,21,Male,Right,Mouse,Corrected,2021-04-06_01h52.11.266,facelocalization,2020.1.2,Win32,60,-0.162037026,-0.325925995,1,0,0,0.797485,28,0,155,155,320,1,7
,,,,,,-0.125925915,-0.005555563,1,0,0,1.047115,F,,,,,,-0.18,0.31176,,jy,3032750736,21,Male,Right,Mouse,Corrected,2021-04-06_01h52.11.266,facelocalization,2020.1.2,Win32,60,-0.239814805,0.296296293,1,0,0,0.61485,26,0,156,156,304,1,7
,,,,,,0.183333349,-0.025000008,1,0,0,0.49854,M,,,,,,-0.356904,0.04698,,jy,3032750736,21,Male,Right,Mouse,Corrected,2021-04-06_01h52.11.266,facelocalization,2020.1.2,Win32,60,-0.342592584,0.016666659,1,0,0,0.83075,15,0,157,157,167,1,4
,,,,,,0.136111126,0.01203703,1,0,0,0.664265,M,,,,,,-0.31176,0.18,,jy,3032750736,21,Male,Right,Mouse,Corrected,2021-04-06_01h52.11.266,facelocalization,2020.1.2,Win32,60,-0.31851851,0.180555551,1,0,0,0.814325,23,0,158,158,260,1,6
,,,,,,-0.156481471,-0.004629637,1,0,0,0.415135,F,,,,,,-0.347724,-0.093168,,jy,3032750736,21,Male,Right,Mouse,Corrected,2021-04-06_01h52.11.266,facelocalization,2020.1.2,Win32,60,-0.31388888,-0.109259268,1,0,0,0.698065,13,0,159,159,170,1,4
,,,,,,0.120370385,-0.041666675,1,0,0,0.399095,M,,,,,,0.347724,0.093168,,jy,3032750736,21,Male,Right,Mouse,Corrected,2021-04-06_01h52.11.266,facelocalization,2020.1.2,Win32,60,0.353703722,0.081481475,1,0,0,0.64805,24,0,160,160,242,1,6
,,,,,,0.156481497,0.0074074,1,0,0,0.48157,M,,,,,,-0.04698,0.356904,,jy,3032750736,21,Male,Right,Mouse,Corrected,2021-04-06_01h52.11.266,facelocalization,2020.1.2,Win32,60,-0.046296284,0.310185182,1,0,0,0.58136,22,0,161,161,253,1,6
,,,,,,0.161111127,0.013888882,1,0,0,0.630775,M,,,,,,-0.36,0,,jy,3032750736,21,Male,Right,Mouse,Corrected,2021-04-06_01h52.11.266,facelocalization,2020.1.2,Win32,60,-0.320370362,-0.000925933,1,0,0,0.86403,21,0,162,162,264,1,6
,,,,,,-0.16574073,0.048148141,1,0,0,0.464865,F,,,,,,0.093168,-0.347724,,jy,3032750736,21,Male,Right,Mouse,Corrected,2021-04-06_01h52.11.266,facelocalization,2020.1.2,Win32,60,0.075000014,-0.343518531,1,0,0,0.980755,20,0,163,163,230,1,5
,,,,,,-0.14074073,-0.000925933,1,0,0,0.46515,F,,,,,,0.31176,0.18,,jy,3032750736,21,Male,Right,Mouse,Corrected,2021-04-06_01h52.11.266,facelocalization,2020.1.2,Win32,60,0.320370388,0.178703699,1,0,0,0.83092,31,0,164,164,340,1,8
,,,,,,-0.145370359,0.005555548,1,0,0,0.61502,F,,,,,,-0.356904,-0.04698,,jy,3032750736,21,Male,Right,Mouse,Corrected,2021-04-06_01h52.11.266,facelocalization,2020.1.2,Win32,60,-0.405555548,-0.05648149,1,0,0,0.63105,1,0,165,165,25,1,1
,,,,,,-0.151851841,-7.4558E-09,1,0,0,0.39856,F,,,,,,-0.254556,-0.254556,,jy,3032750736,21,Male,Right,Mouse,Corrected,2021-04-06_01h52.11.266,facelocalization,2020.1.2,Win32,60,-0.238888823,-0.266666678,1,0,0,0.7312,32,0,166,166,366,1,8
,,,,,,-0.152777767,-0.021296304,1,0,0,0.515465,F,,,,,,0.254556,0.254556,,jy,3032750736,21,Male,Right,Mouse,Corrected,2021-04-06_01h52.11.266,facelocalization,2020.1.2,Win32,60,0.269444462,0.205555551,1,0,0,0.681095,2,0,167,167,6,1,1
,,,,,,-0.149999989,0.005555548,1,0,0,0.515385,F,,,,,,0.18,0.31176,,jy,3032750736,21,Male,Right,Mouse,Corrected,2021-04-06_01h52.11.266,facelocalization,2020.1.2,Win32,60,0.160185201,0.247222218,1,0,0,0.846945,13,0,168,168,152,1,4
,,,,,,0.151851867,0.01203703,1,0,0,0.598605,M,,,,,,0.254556,0.254556,,jy,3032750736,21,Male,Right,Mouse,Corrected,2021-04-06_01h52.11.266,facelocalization,2020.1.2,Win32,60,0.230555572,0.2287037,1,0,0,0.74718,21,0,169,169,246,1,6
,,,,,,-0.14074073,0.00277777,1,0,0,0.648135,F,,,,,,0.21915,-0.285606,,jy,3032750736,21,Male,Right,Mouse,Corrected,2021-04-06_01h52.11.266,facelocalization,2020.1.2,Win32,60,0.225925943,-0.302777846,1,0,0,0.648015,28,0,170,170,329,1,7
,,,,,,0.200925942,0.017592585,1,0,0,0.349535,M,,,,,,0.332586,0.137754,,jy,3032750736,21,Male,Right,Mouse,Corrected,2021-04-06_01h52.11.266,facelocalization,2020.1.2,Win32,60,0.343518537,0.140740735,1,0,0,0.614715,5,0,171,171,51,1,2
,,,,,,-0.118518451,0.026851817,1,0,0,0.36521,F,,,,,,-0.347724,-0.093168,,jy,3032750736,21,Male,Right,Mouse,Corrected,2021-04-06_01h52.11.266,facelocalization,2020.1.2,Win32,60,-0.374074066,-0.125000009,1,0,0,0.714935,31,0,172,172,362,1,8
,,,,,,0.168518534,-0.006481489,1,0,0,0.515115,M,,,,,,-0.356904,-0.04698,,jy,3032750736,21,Male,Right,Mouse,Corrected,2021-04-06_01h52.11.266,facelocalization,2020.1.2,Win32,60,-0.322222214,-0.085185194,1,0,0,1.62856,11,0,173,173,121,1,3
,,,,,,-0.1611111,0.012962956,1,0,0,0.4316,F,,,,,,-0.347724,0.093168,,jy,3032750736,21,Male,Right,Mouse,Corrected,2021-04-06_01h52.11.266,facelocalization,2020.1.2,Win32,60,-0.362962955,0.114814781,1,0,0,0.6983,4,0,174,174,22,1,1
,,,,,,0.167592608,-0.012037045,1,0,0,0.564975,M,,,,,,-0.093168,-0.347724,,jy,3032750736,21,Male,Right,Mouse,Corrected,2021-04-06_01h52.11.266,facelocalization,2020.1.2,Win32,60,-0.079629618,-0.360185198,1,0,0,0.79816,11,0,175,175,130,1,3
,,,,,,-0.168518508,0.022222215,1,0,0,0.43221,F,,,,,,-0.093168,-0.347724,,jy,3032750736,21,Male,Right,Mouse,Corrected,2021-04-06_01h52.11.266,facelocalization,2020.1.2,Win32,60,-0.10185184,-0.339814884,1,0,0,0.69747,4,0,176,176,34,1,1
,,,,,,0.165740756,-0.010185193,1,0,0,0.34881,M,,,,,,0.285606,-0.21915,,jy,3032750736,21,Male,Right,Mouse,Corrected,2021-04-06_01h52.11.266,facelocalization,2020.1.2,Win32,60,0.269444462,-0.198148159,1,0,0,0.698145,9,0,177,177,139,1,3
,,,,,,0.103703718,0.027777771,1,0,0,0.415325,M,,,,,,0,-0.36,,jy,3032750736,21,Male,Right,Mouse,Corrected,2021-04-06_01h52.11.266,facelocalization,2020.1.2,Win32,60,0.033333347,-0.362963032,1,0,0,0.71434,25,0,178,178,324,1,7
,,,,,,0.120370385,-0.030555563,1,0,0,0.7975,M,,,,,,0.332586,0.137754,,jy,3032750736,21,Male,Right,Mouse,Corrected,2021-04-06_01h52.11.266,facelocalization,2020.1.2,Win32,60,0.333333352,0.157407402,1,0,0,0.730985,26,0,179,179,291,1,7
,,,,,,-0.147222211,-0.015740748,1,0,0,0.481705,F,,,,,,0.093168,0.347724,,jy,3032750736,21,Male,Right,Mouse,Corrected,2021-04-06_01h52.11.266,facelocalization,2020.1.2,Win32,60,0.062962977,0.30740739,1,0,0,0.598265,4,0,180,180,10,1,1
,,,,,,-0.137962952,-0.013888897,1,0,0,0.69806,F,,,,,,0.356904,0.04698,,jy,3032750736,21,Male,Right,Mouse,Corrected,2021-04-06_01h52.11.266,facelocalization,2020.1.2,Win32,60,0.348148167,0.004629622,1,0,0,0.781395,1,0,181,181,1,1,1
,,,,,,-0.124074063,0.021296289,1,0,0,0.448155,F,,,,,,-0.356904,-0.04698,,jy,3032750736,21,Male,Right,Mouse,Corrected,2021-04-06_01h52.11.266,facelocalization,2020.1.2,Win32,60,-0.362962955,-0.050000008,1,0,0,0.68137,30,0,182,182,361,1,8
,,,,,,0.14444446,-0.040740749,1,0,0,0.51561,M,,,,,,0,-0.36,,jy,3032750736,21,Male,Right,Mouse,Corrected,2021-04-06_01h52.11.266,facelocalization,2020.1.2,Win32,60,0.023148162,-0.360185198,1,0,0,0.63099,18,0,183,183,228,1,5
,,,,,,0.157407423,-0.018518526,1,0,0,0.63181,M,,,,,,0.093168,-0.347724,,jy,3032750736,21,Male,Right,Mouse,Corrected,2021-04-06_01h52.11.266,facelocalization,2020.1.2,Win32,60,0.100000015,-0.35277779,1,0,0,0.897285,24,0,184,184,278,1,6
,,,,,,0.137037052,-0.050000008,1,0,0,0.44833,M,,,,,,0.093168,0.347724,,jy,3032750736,21,Male,Right,Mouse,Corrected,2021-04-06_01h52.11.266,facelocalization,2020.1.2,Win32,60,0.071296311,0.315740738,1,0,0,0.747645,32,0,185,185,346,1,8
,,,,,,-0.130555544,-0.0175926,1,0,0,0.44862,F,,,,,,0.31176,0.18,,jy,3032750736,21,Male,Right,Mouse,Corrected,2021-04-06_01h52.11.266,facelocalization,2020.1.2,Win32,60,0.317592611,0.157407402,1,0,0,0.581455,1,0,186,186,4,1,1
,,,,,,0.133333349,-0.005555563,1,0,0,0.348855,M,,,,,,0.254556,-0.254556,,jy,3032750736,21,Male,Right,Mouse,Corrected,2021-04-06_01h52.11.266,facelocalization,2020.1.2,Win32,60,0.249074091,-0.27314816,1,0,0,0.647925,9,0,187,187,138,1,3
,,,,,,-0.157407397,0.009259252,1,0,0,0.531465,F,,,,,,0.093168,-0.347724,,jy,3032750736,21,Male,Right,Mouse,Corrected,2021-04-06_01h52.11.266,facelocalization,2020.1.2,Win32,60,0.095370385,-0.350000013,1,0,0,0.58166,31,0,188,188,374,1,8
,,,,,,0.141666682,-0.034259267,1,0,0,0.548825,M,,,,,,0.285606,-0.21915,,jy,3032750736,21,Male,Right,Mouse,Corrected,2021-04-06_01h52.11.266,facelocalization,2020.1.2,Win32,60,0.325925944,-0.239814826,1,0,0,0.747235,8,0,189,189,91,1,2
,,,,,,-0.167592582,0.001851844,1,0,0,0.43187,F,,,,,,-0.21915,0.285606,,jy,3032750736,21,Male,Right,Mouse,Corrected,2021-04-06_01h52.11.266,facelocalization,2020.1.2,Win32,60,-0.201851785,0.268518515,1,0,0,0.764425,14,0,190,190,161,1,4
,,,,,,0.146296312,0.012962956,1,0,0,0.531585,M,,,,,,0.04698,-0.356904,,jy,3032750736,21,Male,Right,Mouse,Corrected,2021-04-06_01h52.11.266,facelocalization,2020.1.2,Win32,60,0.059259273,-0.342592605,1,0,0,0.74773,6,0,191,191,85,1,2
,,,,,,-0.149074063,0.024999993,1,0,0,0.482095,F,,,,,,0.21915,-0.285606,,jy,3032750736,21,Male,Right,Mouse,Corrected,2021-04-06_01h52.11.266,facelocalization,2020.1.2,Win32,60,0.200925942,-0.302777846,1,0,0,1.129875,14,0,192,192,185,1,4
,,,,,,0.157407423,0.003703696,1,0,0,0.68106,M,,,,,,-0.356904,-0.04698,,jy,3032750736,21,Male,Right,Mouse,Corrected,2021-04-06_01h52.11.266,facelocalization,2020.1.2,Win32,60,-0.37314814,-0.05185186,1,0,0,0.698205,25,0,193,193,313,1,7
,,,,,,0.154629645,-0.019444452,1,0,0,0.43171,M,,,,,,0.21915,0.285606,,jy,3032750736,21,Male,Right,Mouse,Corrected,2021-04-06_01h52.11.266,facelocalization,2020.1.2,Win32,60,0.232407424,0.287037034,1,0,0,0.76469,28,0,194,194,295,1,7
,,,,,,0.156481497,-0.007407415,1,0,0,0.514285,M,,,,,,-0.254556,0.254556,,jy,3032750736,21,Male,Right,Mouse,Corrected,2021-04-06_01h52.11.266,facelocalization,2020.1.2,Win32,60,-0.244444435,0.244444441,1,0,0,0.71464,6,0,195,195,66,1,2
,,,,,,0.136111126,-0.030555563,1,0,0,0.598185,M,,,,,,-0.137754,0.332586,,jy,3032750736,21,Male,Right,Mouse,Corrected,2021-04-06_01h52.11.266,facelocalization,2020.1.2,Win32,60,-0.146296229,0.285185182,1,0,0,0.714405,26,0,196,196,303,1,7
,,,,,,-0.171296286,0.056481475,1,0,0,0.448825,F,,,,,,0,-0.36,,jy,3032750736,21,Male,Right,Mouse,Corrected,2021-04-06_01h52.11.266,facelocalization,2020.1.2,Win32,60,-0.012036967,-0.349074143,1,0,0,0.796895,16,0,197,197,180,1,4
,,,,,,-0.119444433,-0.008333341,1,0,0,1.16708,F,,,,,,-0.04698,0.356904,,jy,3032750736,21,Male,Right,Mouse,Corrected,2021-04-06_01h52.11.266,facelocalization,2020.1.2,Win32,60,-0.057407395,0.366666665,1,0,0,0.714735,9,0,198,198,109,1,3
,,,,,,-0.156481471,0.018518511,1,0,0,1.41257,F,,,,,,-0.18,-0.31176,,jy,3032750736,21,Male,Right,Mouse,Corrected,2021-04-06_01h52.11.266,facelocalization,2020.1.2,Win32,60,-0.196296286,-0.322222234,1,0,0,0.780865,17,0,199,199,224,1,5
,,,,,,0.173148164,0.001851844,1,0,0,0.41547,M,,,,,,0.31176,0.18,,jy,3032750736,21,Male,Right,Mouse,Corrected,2021-04-06_01h52.11.266,facelocalization,2020.1.2,Win32,60,0.306481499,0.173148143,1,0,0,0.897105,27,0,200,200,292,1,7
,,,,,,-0.137036969,-0.015740748,1,0,0,0.415655,F,,,,,,-0.137754,-0.332586,,jy,3032750736,21,Male,Right,Mouse,Corrected,2021-04-06_01h52.11.266,facelocalization,2020.1.2,Win32,60,-0.122222211,-0.335185254,1,0,0,0.79749,14,0,201,201,177,1,4
,,,,,,0.173148164,-0.004629637,1,0,0,0.412945,M,,,,,,0.285606,-0.21915,,jy,3032750736,21,Male,Right,Mouse,Corrected,2021-04-06_01h52.11.266,facelocalization,2020.1.2,Win32,60,0.306481499,-0.232407418,1,0,0,0.81727,25,0,202,202,331,1,7
,,,,,,-0.155555488,0.018518511,1,0,0,0.564315,F,,,,,,0.18,-0.31176,,jy,3032750736,21,Male,Right,Mouse,Corrected,2021-04-06_01h52.11.266,facelocalization,2020.1.2,Win32,60,0.221296313,-0.356481494,1,0,0,0.634505,3,0,203,203,40,1,1
,,,,,,-0.179629619,0.023148141,1,0,0,0.432085,F,,,,,,0.254556,-0.254556,,jy,3032750736,21,Male,Right,Mouse,Corrected,2021-04-06_01h52.11.266,facelocalization,2020.1.2,Win32,60,0.26759261,-0.246296307,1,0,0,0.697565,19,0,204,204,234,1,5
,,,,,,-0.142592581,-0.012962971,1,0,0,0.481685,F,,,,,,0.285606,-0.21915,,jy,3032750736,21,Male,Right,Mouse,Corrected,2021-04-06_01h52.11.266,facelocalization,2020.1.2,Win32,60,0.275000017,-0.275000068,1,0,0,0.83067,14,0,205,205,187,1,4
,,,,,,0.137037052,0.001851844,1,0,0,0.516045,M,,,,,,-0.18,-0.31176,,jy,3032750736,21,Male,Right,Mouse,Corrected,2021-04-06_01h52.11.266,facelocalization,2020.1.2,Win32,60,-0.162962952,-0.341666679,1,0,0,0.71425,22,0,206,206,272,1,6
,,,,,,0.147222238,0.015740734,1,0,0,0.414145,M,,,,,,0.137754,-0.332586,,jy,3032750736,21,Male,Right,Mouse,Corrected,2021-04-06_01h52.11.266,facelocalization,2020.1.2,Win32,60,0.13981483,-0.322222234,1,0,0,0.582715,5,0,207,207,87,1,2
,,,,,,-0.160185118,0.004629622,1,0,0,0.462395,F,,,,,,0.285606,0.21915,,jy,3032750736,21,Male,Right,Mouse,Corrected,2021-04-06_01h52.11.266,facelocalization,2020.1.2,Win32,60,0.335185203,0.260185182,1,0,0,0.58376,13,0,208,208,149,1,4
,,,,,,0.165740756,-0.012037045,1,0,0,0.41915,M,,,,,,0.332586,-0.137754,,jy,3032750736,21,Male,Right,Mouse,Corrected,2021-04-06_01h52.11.266,facelocalization,2020.1.2,Win32,60,0.388888908,-0.174074084,1,0,0,0.63147,6,0,209,209,93,1,2
,,,,,,0.158333349,-0.000925933,1,0,0,0.41524,M,,,,,,0.137754,0.332586,,jy,3032750736,21,Male,Right,Mouse,Corrected,2021-04-06_01h52.11.266,facelocalization,2020.1.2,Win32,60,0.133333349,0.324074071,1,0,0,0.64824,1,0,210,210,9,1,1
,,,,,,0.167592608,-0.009259267,1,0,0,0.48204,M,,,,,,0.347724,-0.093168,,jy,3032750736,21,Male,Right,Mouse,Corrected,2021-04-06_01h52.11.266,facelocalization,2020.1.2,Win32,60,0.357407426,-0.112963029,1,0,0,0.581005,14,0,211,211,190,1,4
,,,,,,0.166666682,0.054629595,1,0,0,0.484785,M,,,,,,-0.137754,-0.332586,,jy,3032750736,21,Male,Right,Mouse,Corrected,2021-04-06_01h52.11.266,facelocalization,2020.1.2,Win32,60,-0.144444433,-0.376851921,1,0,0,0.79472,28,0,212,212,321,1,7
,,,,,,-0.151851841,0.013888882,1,0,0,0.550555,F,,,,,,0.04698,-0.356904,,jy,3032750736,21,Male,Right,Mouse,Corrected,2021-04-06_01h52.11.266,facelocalization,2020.1.2,Win32,60,0.054629644,-0.40000007,1,0,0,0.61456,13,0,213,213,181,1,4
,,,,,,0.148148164,0.021296289,1,0,0,0.33533,M,,,,,,0.347724,0.093168,,jy,3032750736,21,Male,Right,Mouse,Corrected,2021-04-06_01h52.11.266,facelocalization,2020.1.2,Win32,60,0.359259278,0.085185179,1,0,0,0.68126,5,0,214,214,50,1,2
,,,,,,-0.19999999,0.037962956,1,0,0,0.381815,F,,,,,,0,-0.36,,jy,3032750736,21,Male,Right,Mouse,Corrected,2021-04-06_01h52.11.266,facelocalization,2020.1.2,Win32,60,0.011111181,-0.378703717,1,0,0,0.66169,2,0,215,215,36,1,1
,,,,,,-0.113888821,0.028703697,1,0,0,0.448435,F,,,,,,0.254556,0.254556,,jy,3032750736,21,Male,Right,Mouse,Corrected,2021-04-06_01h52.11.266,facelocalization,2020.1.2,Win32,60,0.283333351,0.28796296,1,0,0,0.597775,20,0,216,216,198,1,5
,,,,,,0.156481497,0.024999993,1,0,0,0.495045,M,,,,,,0.18,0.31176,,jy,3032750736,21,Male,Right,Mouse,Corrected,2021-04-06_01h52.11.266,facelocalization,2020.1.2,Win32,60,0.205555572,0.295370367,1,0,0,0.65134,5,0,217,217,56,1,2
,,,,,,-0.141666599,-0.033333341,1,0,0,0.49579,F,,,,,,0.04698,-0.356904,,jy,3032750736,21,Male,Right,Mouse,Corrected,2021-04-06_01h52.11.266,facelocalization,2020.1.2,Win32,60,0.064814829,-0.356481494,1,0,0,0.714485,17,0,218,218,229,1,5
,,,,,,-0.149999989,0.012962956,1,0,0,0.448385,F,,,,,,-0.285606,-0.21915,,jy,3032750736,21,Male,Right,Mouse,Corrected,2021-04-06_01h52.11.266,facelocalization,2020.1.2,Win32,60,-0.319444436,-0.195370381,1,0,0,0.64774,31,0,219,219,365,1,8
,,,,,,-0.171296286,-0.012037045,1,0,0,0.548445,F,,,,,,0.356904,-0.04698,,jy,3032750736,21,Male,Right,Mouse,Corrected,2021-04-06_01h52.11.266,facelocalization,2020.1.2,Win32,60,0.345370389,-0.050925934,1,0,0,0.61431,27,0,220,220,335,1,7
,,,,,,-0.122222211,-0.025000008,1,0,0,0.528695,F,,,,,,-0.04698,0.356904,,jy,3032750736,21,Male,Right,Mouse,Corrected,2021-04-06_01h52.11.266,facelocalization,2020.1.2,Win32,60,-0.065740728,0.360185183,1,0,0,0.66738,31,0,221,221,349,1,8
,,,,,,0.092592607,0.008333326,1,0,0,0.614925,M,,,,,,-0.31176,0.18,,jy,3032750736,21,Male,Right,Mouse,Corrected,2021-04-06_01h52.11.266,facelocalization,2020.1.2,Win32,60,-0.330555547,0.149074069,1,0,0,0.764185,29,0,222,222,356,1,8
,,,,,,-0.129629618,-0.011111119,1,0,0,0.44542,F,,,,,,-0.093168,0.347724,,jy,3032750736,21,Male,Right,Mouse,Corrected,2021-04-06_01h52.11.266,facelocalization,2020.1.2,Win32,60,-0.146296229,0.304629627,1,0,0,0.650855,14,0,223,223,158,1,4
,,,,,,-0.151851841,-0.024074082,1,0,0,0.53186,F,,,,,,0.347724,-0.093168,,jy,3032750736,21,Male,Right,Mouse,Corrected,2021-04-06_01h52.11.266,facelocalization,2020.1.2,Win32,60,0.350926057,-0.144444454,1,0,0,0.84743,23,0,224,224,286,1,6
,,,,,,0.181481497,0.005555548,1,0,0,0.51574,M,,,,,,-0.137754,0.332586,,jy,3032750736,21,Male,Right,Mouse,Corrected,2021-04-06_01h52.11.266,facelocalization,2020.1.2,Win32,60,-0.147222211,0.305555553,1,0,0,0.664255,5,0,225,225,63,1,2
,,,,,,-0.169444377,0.026851817,1,0,0,0.401255,F,,,,,,-0.332586,0.137754,,jy,3032750736,21,Male,Right,Mouse,Corrected,2021-04-06_01h52.11.266,facelocalization,2020.1.2,Win32,60,-0.316666658,0.12592592,1,0,0,0.714485,32,0,226,226,357,1,8
,,,,,,-0.162037026,-0.038888897,1,0,0,0.46565,F,,,,,,-0.137754,-0.332586,,jy,3032750736,21,Male,Right,Mouse,Corrected,2021-04-06_01h52.11.266,facelocalization,2020.1.2,Win32,60,-0.179629619,-0.362963032,1,0,0,0.763785,7,0,227,227,81,1,2
,,,,,,-0.141666599,0.010185178,1,0,0,0.551445,F,,,,,,0.137754,0.332586,,jy,3032750736,21,Male,Right,Mouse,Corrected,2021-04-06_01h52.11.266,facelocalization,2020.1.2,Win32,60,0.142592608,0.338888886,1,0,0,0.697325,28,0,228,228,297,1,7
,,,,,,0.173148164,-0.040740749,1,0,0,0.51525,M,,,,,,-0.285606,0.21915,,jy,3032750736,21,Male,Right,Mouse,Corrected,2021-04-06_01h52.11.266,facelocalization,2020.1.2,Win32,60,-0.276851843,0.184259226,1,0,0,0.57824,24,0,229,229,259,1,6
,,,,,,-0.129629618,-0.024074082,1,0,0,0.84755,F,,,,,,-0.31176,-0.18,,jy,3032750736,21,Male,Right,Mouse,Corrected,2021-04-06_01h52.11.266,facelocalization,2020.1.2,Win32,60,-0.351851844,-0.183333344,1,0,0,0.598115,25,0,230,230,316,1,7
,,,,,,0.180555571,0.00277777,1,0,0,0.58168,M,,,,,,-0.137754,-0.332586,,jy,3032750736,21,Male,Right,Mouse,Corrected,2021-04-06_01h52.11.266,facelocalization,2020.1.2,Win32,60,-0.133333322,-0.349074143,1,0,0,0.897475,21,0,231,231,273,1,6
,,,,,,-0.19074073,0.04629629,1,0,0,0.382195,F,,,,,,-0.04698,-0.356904,,jy,3032750736,21,Male,Right,Mouse,Corrected,2021-04-06_01h52.11.266,facelocalization,2020.1.2,Win32,60,-0.028703691,-0.383333346,1,0,0,0.697635,13,0,232,232,179,1,4
,,,,,,0.044444458,-0.04722223,1,0,0,0.34686,M,,,,,,0.254556,0.254556,,jy,3032750736,21,Male,Right,Mouse,Corrected,2021-04-06_01h52.11.266,facelocalization,2020.1.2,Win32,60,0.234259276,0.233333329,1,0,0,0.73305,27,0,233,233,294,1,7
,,,,,,0.145370386,0.042592586,1,0,0,0.412475,M,,,,,,0.18,-0.31176,,jy,3032750736,21,Male,Right,Mouse,Corrected,2021-04-06_01h52.11.266,facelocalization,2020.1.2,Win32,60,0.216666683,-0.328703716,1,0,0,0.76741,22,0,234,234,280,1,6
,,,,,,-0.16574073,-0.024074082,1,0,0,0.44981,F,,,,,,0.137754,0.332586,,jy,3032750736,21,Male,Right,Mouse,Corrected,2021-04-06_01h52.11.266,facelocalization,2020.1.2,Win32,60,0.134259275,0.309259256,1,0,0,0.66431,23,0,235,235,249,1,6
,,,,,,-0.175925915,0.035185178,1,0,0,0.51517,F,,,,,,-0.332586,0.137754,,jy,3032750736,21,Male,Right,Mouse,Corrected,2021-04-06_01h52.11.266,facelocalization,2020.1.2,Win32,60,-0.3824074,0.182407403,1,0,0,0.63128,14,0,236,236,165,1,4
,,,,,,-0.087962951,0.053703697,1,0,0,0.396015,F,,,,,,-0.285606,-0.21915,,jy,3032750736,21,Male,Right,Mouse,Corrected,2021-04-06_01h52.11.266,facelocalization,2020.1.2,Win32,60,-0.309259251,-0.230555566,1,0,0,0.59873,7,0,237,237,77,1,2
,,,,,,-0.159259248,-0.010185193,1,0,0,0.49873,F,,,,,,0.21915,-0.285606,,jy,3032750736,21,Male,Right,Mouse,Corrected,2021-04-06_01h52.11.266,facelocalization,2020.1.2,Win32,60,0.247222239,-0.308333345,1,0,0,0.69741,8,0,238,238,89,1,2
,,,,,,0.180555571,0.021296289,1,0,0,0.51259,M,,,,,,-0.332586,-0.137754,,jy,3032750736,21,Male,Right,Mouse,Corrected,2021-04-06_01h52.11.266,facelocalization,2020.1.2,Win32,60,-0.342592584,-0.171296306,1,0,0,0.700245,24,0,239,239,267,1,6
,,,,,,0.162037053,-0.021296304,1,0,0,0.431805,M,,,,,,0.254556,0.254556,,jy,3032750736,21,Male,Right,Mouse,Corrected,2021-04-06_01h52.11.266,facelocalization,2020.1.2,Win32,60,0.275925943,0.211111107,1,0,0,0.66523,8,0,240,240,54,1,2
,,,,,,-0.196296286,-0.048148156,1,0,0,0.385715,F,,,,,,0.18,0.31176,,jy,3032750736,21,Male,Right,Mouse,Corrected,2021-04-06_01h52.11.266,facelocalization,2020.1.2,Win32,60,0.187962979,0.304629627,1,0,0,0.598155,18,0,241,241,200,1,5
,,,,,,0.092592607,-0.002777785,1,0,0,0.465265,M,,,,,,-0.31176,0.18,,jy,3032750736,21,Male,Right,Mouse,Corrected,2021-04-06_01h52.11.266,facelocalization,2020.1.2,Win32,60,-0.349074066,0.201851847,1,0,0,0.54824,6,0,242,242,68,1,2
,,,,,,0.145370386,0.00277777,1,0,0,0.53204,M,,,,,,-0.31176,0.18,,jy,3032750736,21,Male,Right,Mouse,Corrected,2021-04-06_01h52.11.266,facelocalization,2020.1.2,Win32,60,-0.38703703,0.191666662,1,0,0,0.6649,10,0,243,243,116,1,3
,,,,,,0.162037053,0.006481474,1,0,0,0.36312,M,,,,,,0.356904,0.04698,,jy,3032750736,21,Male,Right,Mouse,Corrected,2021-04-06_01h52.11.266,facelocalization,2020.1.2,Win32,60,0.334259277,0.078703697,1,0,0,0.60034,26,0,244,244,289,1,7
,,,,,,-0.178703637,0.027777771,1,0,0,0.412485,F,,,,,,-0.356904,0.04698,,jy,3032750736,21,Male,Right,Mouse,Corrected,2021-04-06_01h52.11.266,facelocalization,2020.1.2,Win32,60,-0.394444437,0.049074067,1,0,0,0.734,20,0,245,245,215,1,5
,,,,,,-0.149074063,0.016666659,1,0,0,0.86775,F,,,,,,0.137754,0.332586,,jy,3032750736,21,Male,Right,Mouse,Corrected,2021-04-06_01h52.11.266,facelocalization,2020.1.2,Win32,60,0.154629645,0.371296294,1,0,0,0.59737,14,0,246,246,153,1,4
,,,,,,-0.162037026,0.056481475,1,0,0,0.49829,F,,,,,,-0.04698,-0.356904,,jy,3032750736,21,Male,Right,Mouse,Corrected,2021-04-06_01h52.11.266,facelocalization,2020.1.2,Win32,60,-0.074074062,-0.390740811,1,0,0,0.883845,20,0,247,247,227,1,5
,,,,,,0.164814831,0.022222215,1,0,0,0.53157,M,,,,,,-0.21915,-0.285606,,jy,3032750736,21,Male,Right,Mouse,Corrected,2021-04-06_01h52.11.266,facelocalization,2020.1.2,Win32,60,-0.220370304,-0.302777846,1,0,0,0.69739,27,0,248,248,319,1,7
,,,,,,0.183333349,-0.025925934,1,0,0,0.332465,M,,,,,,0.36,0,,jy,3032750736,21,Male,Right,Mouse,Corrected,2021-04-06_01h52.11.266,facelocalization,2020.1.2,Win32,60,0.374074206,-0.025000008,1,0,0,0.597845,6,0,249,249,48,1,2
,,,,,,-0.162037026,-0.014814822,1,0,0,0.481965,F,,,,,,0.093168,0.347724,,jy,3032750736,21,Male,Right,Mouse,Corrected,2021-04-06_01h52.11.266,facelocalization,2020.1.2,Win32,60,0.116666682,0.325925909,1,0,0,0.551515,15,0,250,250,154,1,4
,,,,,,-0.133333322,-0.006481489,1,0,0,0.398365,F,,,,,,-0.31176,0.18,,jy,3032750736,21,Male,Right,Mouse,Corrected,2021-04-06_01h52.11.266,facelocalization,2020.1.2,Win32,60,-0.300925917,0.119444411,1,0,0,0.63119,16,0,251,251,164,1,4
,,,,,,-0.192592526,-0.039814823,1,0,0,0.547975,F,,,,,,0.285606,0.21915,,jy,3032750736,21,Male,Right,Mouse,Corrected,2021-04-06_01h52.11.266,facelocalization,2020.1.2,Win32,60,0.31851865,0.196296292,1,0,0,0.65134,8,0,252,252,53,1,2
,,,,,,-0.151851841,-0.035185193,1,0,0,0.61255,F,,,,,,0.285606,-0.21915,,jy,3032750736,21,Male,Right,Mouse,Corrected,2021-04-06_01h52.11.266,facelocalization,2020.1.2,Win32,60,0.335185203,-0.216666677,1,0,0,0.6672,30,0,253,253,379,1,8
,,,,,,-0.158333322,-0.025000008,1,0,0,0.464885,F,,,,,,0.093168,0.347724,,jy,3032750736,21,Male,Right,Mouse,Corrected,2021-04-06_01h52.11.266,facelocalization,2020.1.2,Win32,60,0.109259274,0.299999997,1,0,0,0.681525,25,0,254,254,298,1,7
,,,,,,-0.157407397,-0.012037045,1,0,0,0.398925,F,,,,,,-0.332586,-0.137754,,jy,3032750736,21,Male,Right,Mouse,Corrected,2021-04-06_01h52.11.266,facelocalization,2020.1.2,Win32,60,-0.340740733,-0.136111177,1,0,0,0.66439,31,0,255,255,363,1,8
,,,,,,0.162962979,-0.004629637,1,0,0,0.44546,M,,,,,,-0.356904,-0.04698,,jy,3032750736,21,Male,Right,Mouse,Corrected,2021-04-06_01h52.11.266,facelocalization,2020.1.2,Win32,60,-0.312962954,-0.063888897,1,0,0,0.59892,5,0,256,256,73,1,2
,,,,,,-0.149074063,-0.05185186,1,0,0,0.445475,F,,,,,,-0.137754,-0.332586,,jy,3032750736,21,Male,Right,Mouse,Corrected,2021-04-06_01h52.11.266,facelocalization,2020.1.2,Win32,60,-0.144444433,-0.360185198,1,0,0,0.85078,18,0,257,257,225,1,5
,,,,,,-0.17037036,0.063888854,1,0,0,0.3985,F,,,,,,0.18,0.31176,,jy,3032750736,21,Male,Right,Mouse,Corrected,2021-04-06_01h52.11.266,facelocalization,2020.1.2,Win32,60,0.226851868,0.279629612,1,0,0,0.63204,32,0,258,258,344,1,8
,,,,,,-0.156481471,-0.001851859,1,0,0,0.36538,F,,,,,,-0.285606,-0.21915,,jy,3032750736,21,Male,Right,Mouse,Corrected,2021-04-06_01h52.11.266,facelocalization,2020.1.2,Win32,60,-0.317592584,-0.24259266,1,0,0,0.93295,18,0,259,259,221,1,5
,,,,,,-0.168518508,0.004629622,1,0,0,0.48211,F,,,,,,-0.21915,0.285606,,jy,3032750736,21,Male,Right,Mouse,Corrected,2021-04-06_01h52.11.266,facelocalization,2020.1.2,Win32,60,-0.225925916,0.305555553,1,0,0,0.665015,32,0,260,260,353,1,8
,,,,,,0.167592608,0.000925918,1,0,0,0.51269,M,,,,,,-0.254556,0.254556,,jy,3032750736,21,Male,Right,Mouse,Corrected,2021-04-06_01h52.11.266,facelocalization,2020.1.2,Win32,60,-0.25462962,0.295370367,1,0,0,0.68348,19,0,261,261,210,1,5
,,,,,,0.127777793,0.011111104,1,0,0,0.551215,M,,,,,,-0.254556,0.254556,,jy,3032750736,21,Male,Right,Mouse,Corrected,2021-04-06_01h52.11.266,facelocalization,2020.1.2,Win32,60,-0.272222213,0.212037033,1,0,0,0.615285,9,0,262,262,114,1,3
,,,,,,-0.183333266,0.015740734,1,0,0,0.48517,F,,,,,,0.18,-0.31176,,jy,3032750736,21,Male,Right,Mouse,Corrected,2021-04-06_01h52.11.266,facelocalization,2020.1.2,Win32,60,0.227777794,-0.32777779,1,0,0,0.664285,28,0,263,263,328,1,7
,,,,,,-0.225925916,-0.007407415,1,0,0,0.43194,F,,,,,,0.31176,0.18,,jy,3032750736,21,Male,Right,Mouse,Corrected,2021-04-06_01h52.11.266,facelocalization,2020.1.2,Win32,60,0.337037168,0.168518514,1,0,0,0.74749,19,0,264,264,196,1,5
,,,,,,-0.157407397,-0.011111119,1,0,0,0.395645,F,,,,,,-0.18,0.31176,,jy,3032750736,21,Male,Right,Mouse,Corrected,2021-04-06_01h52.11.266,facelocalization,2020.1.2,Win32,60,-0.217592583,0.313888886,1,0,0,0.650705,15,0,265,265,160,1,4
,,,,,,-0.147222211,-0.001851859,1,0,0,0.39833,F,,,,,,-0.347724,0.093168,,jy,3032750736,21,Male,Right,Mouse,Corrected,2021-04-06_01h52.11.266,facelocalization,2020.1.2,Win32,60,-0.366666659,0.052777771,1,0,0,0.66781,13,0,266,266,166,1,4
,,,,,,-0.166666656,-0.000925933,1,0,0,0.56486,F,,,,,,0.31176,0.18,,jy,3032750736,21,Male,Right,Mouse,Corrected,2021-04-06_01h52.11.266,facelocalization,2020.1.2,Win32,60,0.373148167,0.159259254,1,0,0,0.58161,15,0,267,267,148,1,4
,,,,,,-0.147222211,-0.025000008,1,0,0,0.478555,F,,,,,,0.332586,-0.137754,,jy,3032750736,21,Male,Right,Mouse,Corrected,2021-04-06_01h52.11.266,facelocalization,2020.1.2,Win32,60,0.349074093,-0.161111121,1,0,0,0.88341,20,0,268,268,237,1,5
,,,,,,-0.200925916,0.008333326,1,0,0,0.747775,F,,,,,,-0.347724,0.093168,,jy,3032750736,21,Male,Right,Mouse,Corrected,2021-04-06_01h52.11.266,facelocalization,2020.1.2,Win32,60,-0.366666659,0.096296262,1,0,0,0.64767,17,0,269,269,214,1,5
,,,,,,-0.152777767,0.016666659,1,0,0,0.481575,F,,,,,,-0.21915,-0.285606,,jy,3032750736,21,Male,Right,Mouse,Corrected,2021-04-06_01h52.11.266,facelocalization,2020.1.2,Win32,60,-0.237962953,-0.310185197,1,0,0,0.896705,1,0,270,270,31,1,1
,,,,,,-0.152777767,0.006481474,1,0,0,0.59475,F,,,,,,0.332586,-0.137754,,jy,3032750736,21,Male,Right,Mouse,Corrected,2021-04-06_01h52.11.266,facelocalization,2020.1.2,Win32,60,0.366666685,-0.155555565,1,0,0,0.767655,23,0,271,271,285,1,6
,,,,,,-0.1611111,0.008333326,1,0,0,0.51259,F,,,,,,0.137754,0.332586,,jy,3032750736,21,Male,Right,Mouse,Corrected,2021-04-06_01h52.11.266,facelocalization,2020.1.2,Win32,60,0.11481483,0.332407405,1,0,0,0.714115,32,0,272,272,345,1,8
,,,,,,-0.146296229,-0.008333341,1,0,0,0.351345,F,,,,,,-0.21915,-0.285606,,jy,3032750736,21,Male,Right,Mouse,Corrected,2021-04-06_01h52.11.266,facelocalization,2020.1.2,Win32,60,-0.221296286,-0.288888957,1,0,0,0.731435,23,0,273,273,271,1,6
,,,,,,0.179629646,-0.008333341,1,0,0,0.43235,M,,,,,,-0.347724,0.093168,,jy,3032750736,21,Male,Right,Mouse,Corrected,2021-04-06_01h52.11.266,facelocalization,2020.1.2,Win32,60,-0.34351851,0.084259253,1,0,0,0.697925,6,0,274,274,70,1,2
,,,,,,0.177777794,-0.016666674,1,0,0,0.39911,M,,,,,,-0.04698,-0.356904,,jy,3032750736,21,Male,Right,Mouse,Corrected,2021-04-06_01h52.11.266,facelocalization,2020.1.2,Win32,60,0.004629643,-0.299074086,1,0,0,0.64787,22,0,275,275,275,1,6
,,,,,,0.145370386,-0.006481489,1,0,0,0.88058,M,,,,,,-0.356904,0.04698,,jy,3032750736,21,Male,Right,Mouse,Corrected,2021-04-06_01h52.11.266,facelocalization,2020.1.2,Win32,60,-0.335185177,0.011111104,1,0,0,0.89757,7,0,276,276,71,1,2
,,,,,,0.123148163,-0.004629637,1,0,0,0.51748,M,,,,,,-0.347724,-0.093168,,jy,3032750736,21,Male,Right,Mouse,Corrected,2021-04-06_01h52.11.266,facelocalization,2020.1.2,Win32,60,-0.376851844,-0.12037038,1,0,0,0.631285,7,0,277,277,74,1,2
,,,,,,-0.178703637,-0.021296304,1,0,0,0.382025,F,,,,,,-0.285606,-0.21915,,jy,3032750736,21,Male,Right,Mouse,Corrected,2021-04-06_01h52.11.266,facelocalization,2020.1.2,Win32,60,-0.314814806,-0.212962974,1,0,0,0.71462,2,0,278,278,29,1,1
,,,,,,0.154629645,0.059259224,1,0,0,0.3484,M,,,,,,0.137754,-0.332586,,jy,3032750736,21,Male,Right,Mouse,Corrected,2021-04-06_01h52.11.266,facelocalization,2020.1.2,Win32,60,0.162037053,-0.349074143,1,0,0,0.74802,26,0,279,279,327,1,7
,,,,,,-0.174999989,-0.013888897,1,0,0,0.565245,F,,,,,,-0.093168,0.347724,,jy,3032750736,21,Male,Right,Mouse,Corrected,2021-04-06_01h52.11.266,facelocalization,2020.1.2,Win32,60,-0.062037025,0.328703701,1,0,0,0.71382,23,0,280,280,254,1,6
,,,,,,-0.180555545,-0.032407415,1,0,0,0.416135,F,,,,,,0.093168,-0.347724,,jy,3032750736,21,Male,Right,Mouse,Corrected,2021-04-06_01h52.11.266,facelocalization,2020.1.2,Win32,60,0.129629645,-0.39537044,1,0,0,0.64785,28,0,281,281,326,1,7
,,,,,,-0.149999989,-0.015740748,1,0,0,0.53417,F,,,,,,0.31176,-0.18,,jy,3032750736,21,Male,Right,Mouse,Corrected,2021-04-06_01h52.11.266,facelocalization,2020.1.2,Win32,60,0.333333352,-0.184259269,1,0,0,0.76724,31,0,282,282,380,1,8
,,,,,,-0.176851841,-0.006481489,1,0,0,0.515155,F,,,,,,-0.36,0,,jy,3032750736,21,Male,Right,Mouse,Corrected,2021-04-06_01h52.11.266,facelocalization,2020.1.2,Win32,60,-0.375925918,-0.016666674,1,0,0,0.647565,18,0,283,283,216,1,5
,,,,,,-0.162037026,-0.034259267,1,0,0,0.49546,F,,,,,,0.31176,-0.18,,jy,3032750736,21,Male,Right,Mouse,Corrected,2021-04-06_01h52.11.266,facelocalization,2020.1.2,Win32,60,0.312037055,-0.212962974,1,0,0,0.88355,24,0,284,284,284,1,6
,,,,,,-0.137962952,0.00277777,1,0,0,0.38251,F,,,,,,-0.254556,-0.254556,,jy,3032750736,21,Male,Right,Mouse,Corrected,2021-04-06_01h52.11.266,facelocalization,2020.1.2,Win32,60,-0.278703695,-0.318518531,1,0,0,0.56428,28,0,285,285,318,1,7
,,,,,,-0.12777771,0.0074074,1,0,0,0.51483,F,,,,,,0.36,0,,jy,3032750736,21,Male,Right,Mouse,Corrected,2021-04-06_01h52.11.266,facelocalization,2020.1.2,Win32,60,0.383333465,-0.010185193,1,0,0,0.780205,23,0,286,286,240,1,6
,,,,,,-0.146296229,-0.003703711,1,0,0,0.45142,F,,,,,,-0.356904,-0.04698,,jy,3032750736,21,Male,Right,Mouse,Corrected,2021-04-06_01h52.11.266,facelocalization,2020.1.2,Win32,60,-0.357407399,-0.072222231,1,0,0,0.63128,18,0,287,287,217,1,5
,,,,,,-0.174999989,-0.038888897,1,0,0,0.60105,F,,,,,,0.18,0.31176,,jy,3032750736,21,Male,Right,Mouse,Corrected,2021-04-06_01h52.11.266,facelocalization,2020.1.2,Win32,60,0.186111127,0.32129628,1,0,0,0.66453,11,0,288,288,104,1,3
,,,,,,-0.118518451,-0.061111119,1,0,0,0.39619,F,,,,,,-0.254556,0.254556,,jy,3032750736,21,Male,Right,Mouse,Corrected,2021-04-06_01h52.11.266,facelocalization,2020.1.2,Win32,60,-0.279629621,0.22407407,1,0,0,0.634145,30,0,289,289,354,1,8
,,,,,,-0.171296286,-0.02222223,1,0,0,0.395935,F,,,,,,-0.137754,-0.332586,,jy,3032750736,21,Male,Right,Mouse,Corrected,2021-04-06_01h52.11.266,facelocalization,2020.1.2,Win32,60,-0.145370359,-0.346296309,1,0,0,0.650685,9,0,290,290,129,1,3
,,,,,,-0.157407397,-0.011111119,1,0,0,0.56208,F,,,,,,0.356904,0.04698,,jy,3032750736,21,Male,Right,Mouse,Corrected,2021-04-06_01h52.11.266,facelocalization,2020.1.2,Win32,60,0.358333352,0.042592586,1,0,0,0.78384,16,0,291,291,145,1,4
,,,,,,-0.181481471,-0.015740748,1,0,0,0.432075,F,,,,,,-0.31176,-0.18,,jy,3032750736,21,Male,Right,Mouse,Corrected,2021-04-06_01h52.11.266,facelocalization,2020.1.2,Win32,60,-0.312037028,-0.219444512,1,0,0,0.781015,24,0,292,292,268,1,6
,,,,,,-0.142592581,0.021296289,1,0,0,0.398865,F,,,,,,-0.21915,0.285606,,jy,3032750736,21,Male,Right,Mouse,Corrected,2021-04-06_01h52.11.266,facelocalization,2020.1.2,Win32,60,-0.238888823,0.266666663,1,0,0,0.76163,23,0,293,293,257,1,6
,,,,,,-0.12685184,0.008333326,1,0,0,0.53436,F,,,,,,0.04698,0.356904,,jy,3032750736,21,Male,Right,Mouse,Corrected,2021-04-06_01h52.11.266,facelocalization,2020.1.2,Win32,60,0.053703718,0.341666664,1,0,0,0.714835,26,0,294,294,299,1,7
,,,,,,-0.159259248,-0.002777785,1,0,0,0.448935,F,,,,,,0.137754,-0.332586,,jy,3032750736,21,Male,Right,Mouse,Corrected,2021-04-06_01h52.11.266,facelocalization,2020.1.2,Win32,60,0.125925941,-0.321296365,1,0,0,0.667285,12,0,295,295,135,1,3
,,,,,,-0.163888878,0.003703696,1,0,0,0.445815,F,,,,,,0.093168,-0.347724,,jy,3032750736,21,Male,Right,Mouse,Corrected,2021-04-06_01h52.11.266,facelocalization,2020.1.2,Win32,60,0.103703718,-0.388888902,1,0,0,0.68408,14,0,296,296,182,1,4
,,,,,,-0.174074007,0.013888882,1,0,0,0.498555,F,,,,,,0.21915,-0.285606,,jy,3032750736,21,Male,Right,Mouse,Corrected,2021-04-06_01h52.11.266,facelocalization,2020.1.2,Win32,60,0.25833335,-0.306481493,1,0,0,0.74721,3,0,297,297,41,1,1
,,,,,,-0.156481471,-0.052777786,1,0,0,0.46477,F,,,,,,-0.04698,-0.356904,,jy,3032750736,21,Male,Right,Mouse,Corrected,2021-04-06_01h52.11.266,facelocalization,2020.1.2,Win32,60,-0.053703635,-0.385185198,1,0,0,0.797725,32,0,298,298,371,1,8
,,,,,,-0.124074063,-0.008333341,1,0,0,0.49788,F,,,,,,0.137754,0.332586,,jy,3032750736,21,Male,Right,Mouse,Corrected,2021-04-06_01h52.11.266,facelocalization,2020.1.2,Win32,60,0.165740756,0.305555553,1,0,0,0.744645,17,0,299,299,201,1,5
,,,,,,-0.158333322,0.045370335,1,0,0,0.34918,F,,,,,,-0.254556,-0.254556,,jy,3032750736,21,Male,Right,Mouse,Corrected,2021-04-06_01h52.11.266,facelocalization,2020.1.2,Win32,60,-0.262962954,-0.256481549,1,0,0,0.697895,7,0,300,300,78,1,2
,,,,,,-0.175925915,-7.4558E-09,1,0,0,0.41463,F,,,,,,-0.21915,-0.285606,,jy,3032750736,21,Male,Right,Mouse,Corrected,2021-04-06_01h52.11.266,facelocalization,2020.1.2,Win32,60,-0.25925925,-0.314814827,1,0,0,0.618085,10,0,301,301,127,1,3
,,,,,,-0.129629618,0.013888882,1,0,0,0.401555,F,,,,,,-0.347724,-0.093168,,jy,3032750736,21,Male,Right,Mouse,Corrected,2021-04-06_01h52.11.266,facelocalization,2020.1.2,Win32,60,-0.344444436,-0.09907414,1,0,0,0.648325,23,0,302,302,266,1,6
,,,,,,-0.135185174,-0.000925933,1,0,0,0.41495,F,,,,,,-0.332586,-0.137754,,jy,3032750736,21,Male,Right,Mouse,Corrected,2021-04-06_01h52.11.266,facelocalization,2020.1.2,Win32,60,-0.349999992,-0.126851918,1,0,0,0.648655,2,0,303,303,27,1,1
,,,,,,-0.145370359,-0.007407415,1,0,0,0.429125,F,,,,,,0,0.36,,jy,3032750736,21,Male,Right,Mouse,Corrected,2021-04-06_01h52.11.266,facelocalization,2020.1.2,Win32,60,0.013888902,0.338888886,1,0,0,0.683605,25,0,304,304,300,1,7
,,,,,,-0.162037026,-0.029629638,1,0,0,0.564965,F,,,,,,0.04698,-0.356904,,jy,3032750736,21,Male,Right,Mouse,Corrected,2021-04-06_01h52.11.266,facelocalization,2020.1.2,Win32,60,0.059259273,-0.381481551,1,0,0,0.630975,24,0,305,305,277,1,6
,,,,,,-0.13148147,-0.003703711,1,0,0,0.535865,F,,,,,,0.21915,0.285606,,jy,3032750736,21,Male,Right,Mouse,Corrected,2021-04-06_01h52.11.266,facelocalization,2020.1.2,Win32,60,0.217592609,0.288888872,1,0,0,0.808495,8,0,306,306,55,1,2
,,,,,,-0.162037026,-0.015740748,1,0,0,0.448415,F,,,,,,0,0.36,,jy,3032750736,21,Male,Right,Mouse,Corrected,2021-04-06_01h52.11.266,facelocalization,2020.1.2,Win32,60,-0.025925857,0.337962961,1,0,0,0.722275,23,0,307,307,252,1,6
,,,,,,0.132407423,0.012962956,1,0,0,0.37917,M,,,,,,0,-0.36,,jy,3032750736,21,Male,Right,Mouse,Corrected,2021-04-06_01h52.11.266,facelocalization,2020.1.2,Win32,60,-0.009259246,-0.374074087,1,0,0,0.77922,22,0,308,308,276,1,6
,,,,,,-0.205555545,0.015740734,1,0,0,0.44889,F,,,,,,0.285606,-0.21915,,jy,3032750736,21,Male,Right,Mouse,Corrected,2021-04-06_01h52.11.266,facelocalization,2020.1.2,Win32,60,0.300925944,-0.290740753,1,0,0,0.680705,23,0,309,309,283,1,6
,,,,,,-0.122222211,0.005555548,1,0,0,0.698245,F,,,,,,-0.093168,0.347724,,jy,3032750736,21,Male,Right,Mouse,Corrected,2021-04-06_01h52.11.266,facelocalization,2020.1.2,Win32,60,-0.162962952,0.296296293,1,0,0,0.712025,3,0,310,310,14,1,1
,,,,,,-0.160185118,0.01203703,1,0,0,0.668385,F,,,,,,-0.356904,0.04698,,jy,3032750736,21,Male,Right,Mouse,Corrected,2021-04-06_01h52.11.266,facelocalization,2020.1.2,Win32,60,-0.374999992,0.04629629,1,0,0,0.61473,26,0,311,311,311,1,7
,,,,,,-0.134259248,0.025925919,1,0,0,0.56458,F,,,,,,0.31176,0.18,,jy,3032750736,21,Male,Right,Mouse,Corrected,2021-04-06_01h52.11.266,facelocalization,2020.1.2,Win32,60,0.338888907,0.153703699,1,0,0,0.74797,23,0,312,312,244,1,6
,,,,,,0.140740756,-0.032407415,1,0,0,0.830325,M,,,,,,-0.21915,-0.285606,,jy,3032750736,21,Male,Right,Mouse,Corrected,2021-04-06_01h52.11.266,facelocalization,2020.1.2,Win32,60,-0.200925916,-0.306481493,1,0,0,0.71755,7,0,313,313,79,1,2
,,,,,,-0.229629563,-0.019444452,1,0,0,0.419245,F,,,,,,0.347724,-0.093168,,jy,3032750736,21,Male,Right,Mouse,Corrected,2021-04-06_01h52.11.266,facelocalization,2020.1.2,Win32,60,0.357407426,-0.109259268,1,0,0,0.64515,17,0,314,314,238,1,5
,,,,,,-0.143518507,0.019444437,1,0,0,0.481985,F,,,,,,0.21915,0.285606,,jy,3032750736,21,Male,Right,Mouse,Corrected,2021-04-06_01h52.11.266,facelocalization,2020.1.2,Win32,60,0.188888905,0.302777761,1,0,0,0.59826,3,0,315,315,7,1,1
,,,,,,-0.139814804,-0.004629637,1,0,0,0.448245,F,,,,,,0.137754,0.332586,,jy,3032750736,21,Male,Right,Mouse,Corrected,2021-04-06_01h52.11.266,facelocalization,2020.1.2,Win32,60,0.121296311,0.297222219,1,0,0,0.747835,10,0,316,316,105,1,3
,,,,,,-0.13148147,-0.036111119,1,0,0,0.47938,F,,,,,,0.356904,-0.04698,,jy,3032750736,21,Male,Right,Mouse,Corrected,2021-04-06_01h52.11.266,facelocalization,2020.1.2,Win32,60,0.380555574,-0.037037045,1,0,0,0.750855,2,0,317,317,47,1,1
,,,,,,-0.104629561,-0.027777786,1,0,0,0.368795,F,,,,,,-0.21915,-0.285606,,jy,3032750736,21,Male,Right,Mouse,Corrected,2021-04-06_01h52.11.266,facelocalization,2020.1.2,Win32,60,-0.214814805,-0.299074086,1,0,0,0.69768,32,0,318,318,367,1,8
,,,,,,-0.154629619,0.0074074,1,0,0,0.48185,F,,,,,,0.21915,0.285606,,jy,3032750736,21,Male,Right,Mouse,Corrected,2021-04-06_01h52.11.266,facelocalization,2020.1.2,Win32,60,0.235185202,0.268518515,1,0,0,0.80064,31,0,319,319,343,1,8
,,,,,,0.165740756,-0.006481489,1,0,0,0.448485,M,,,,,,0.254556,-0.254556,,jy,3032750736,21,Male,Right,Mouse,Corrected,2021-04-06_01h52.11.266,facelocalization,2020.1.2,Win32,60,0.237037054,-0.265740809,1,0,0,0.6482,5,0,320,320,90,1,2
,,,,,,-0.124074063,-0.024074082,1,0,0,0.5978,F,,,,,,-0.093168,-0.347724,,jy,3032750736,21,Male,Right,Mouse,Corrected,2021-04-06_01h52.11.266,facelocalization,2020.1.2,Win32,60,-0.083333321,-0.354629642,1,0,0,0.64792,17,0,321,321,226,1,5
,,,,,,-0.183333266,-0.008333341,1,0,0,0.44885,F,,,,,,0.18,-0.31176,,jy,3032750736,21,Male,Right,Mouse,Corrected,2021-04-06_01h52.11.266,facelocalization,2020.1.2,Win32,60,0.164814831,-0.341666679,1,0,0,0.648055,14,0,322,322,184,1,4
,,,,,,-0.138888878,0.004629622,1,0,0,0.634015,F,,,,,,0.21915,0.285606,,jy,3032750736,21,Male,Right,Mouse,Corrected,2021-04-06_01h52.11.266,facelocalization,2020.1.2,Win32,60,0.206481498,0.24907407,1,0,0,0.76453,13,0,323,323,151,1,4
,,,,,,-0.158333322,-0.016666674,1,0,0,0.498535,F,,,,,,0.285606,0.21915,,jy,3032750736,21,Male,Right,Mouse,Corrected,2021-04-06_01h52.11.266,facelocalization,2020.1.2,Win32,60,0.27222224,0.207407403,1,0,0,0.680935,29,0,324,324,341,1,8
,,,,,,-0.181481471,-0.016666674,1,0,0,0.71469,F,,,,,,-0.31176,-0.18,,jy,3032750736,21,Male,Right,Mouse,Corrected,2021-04-06_01h52.11.266,facelocalization,2020.1.2,Win32,60,-0.340740733,-0.237037048,1,0,0,0.664605,17,0,325,325,220,1,5
,,,,,,-0.172222212,0.021296289,1,0,0,0.380435,F,,,,,,-0.285606,-0.21915,,jy,3032750736,21,Male,Right,Mouse,Corrected,2021-04-06_01h52.11.266,facelocalization,2020.1.2,Win32,60,-0.286111102,-0.223148159,1,0,0,0.6002,13,0,326,326,173,1,4
,,,,,,-0.167592582,-0.02685186,1,0,0,0.461975,F,,,,,,0.137754,-0.332586,,jy,3032750736,21,Male,Right,Mouse,Corrected,2021-04-06_01h52.11.266,facelocalization,2020.1.2,Win32,60,0.159259275,-0.345370383,1,0,0,0.684375,15,0,327,327,183,1,4
,,,,,,-0.124074063,0.024999993,1,0,0,0.38199,F,,,,,,-0.18,-0.31176,,jy,3032750736,21,Male,Right,Mouse,Corrected,2021-04-06_01h52.11.266,facelocalization,2020.1.2,Win32,60,-0.154629619,-0.296296308,1,0,0,0.611755,8,0,328,328,80,1,2
,,,,,,-0.168518508,-0.014814822,1,0,0,0.598605,F,,,,,,0.356904,0.04698,,jy,3032750736,21,Male,Right,Mouse,Corrected,2021-04-06_01h52.11.266,facelocalization,2020.1.2,Win32,60,0.352777796,0.037962956,1,0,0,0.69741,10,0,329,329,97,1,3
,,,,,,-0.128703692,0.018518511,1,0,0,0.84746,F,,,,,,-0.31176,0.18,,jy,3032750736,21,Male,Right,Mouse,Corrected,2021-04-06_01h52.11.266,facelocalization,2020.1.2,Win32,60,-0.331481473,0.143518513,1,0,0,0.58152,26,0,330,330,308,1,7
,,,,,,-0.162962952,0.003703696,1,0,0,0.43226,F,,,,,,-0.36,0,,jy,3032750736,21,Male,Right,Mouse,Corrected,2021-04-06_01h52.11.266,facelocalization,2020.1.2,Win32,60,-0.393518511,-0.034259267,1,0,0,0.5815,29,0,331,331,360,1,8
,,,,,,-0.177777767,0.029629623,1,0,0,0.382505,F,,,,,,0.093168,-0.347724,,jy,3032750736,21,Male,Right,Mouse,Corrected,2021-04-06_01h52.11.266,facelocalization,2020.1.2,Win32,60,0.087037052,-0.350925939,1,0,0,0.68104,2,0,332,332,38,1,1
,,,,,,-0.176851841,0.016666659,1,0,0,0.51553,F,,,,,,0.31176,-0.18,,jy,3032750736,21,Male,Right,Mouse,Corrected,2021-04-06_01h52.11.266,facelocalization,2020.1.2,Win32,60,0.330555574,-0.176851862,1,0,0,0.547575,28,0,333,333,332,1,7
,,,,,,-0.166666656,0.000925918,1,0,0,0.36564,F,,,,,,-0.31176,0.18,,jy,3032750736,21,Male,Right,Mouse,Corrected,2021-04-06_01h52.11.266,facelocalization,2020.1.2,Win32,60,-0.308333325,0.149999995,1,0,0,0.595365,3,0,334,334,20,1,1
,,,,,,-0.166666656,-0.004629637,1,0,0,0.681385,F,,,,,,0.04698,0.356904,,jy,3032750736,21,Male,Right,Mouse,Corrected,2021-04-06_01h52.11.266,facelocalization,2020.1.2,Win32,60,0.03425933,0.324999997,1,0,0,0.82847,9,0,335,335,107,1,3
,,,,,,-0.096296284,-0.003703711,1,0,0,0.481755,F,,,,,,0.332586,0.137754,,jy,3032750736,21,Male,Right,Mouse,Corrected,2021-04-06_01h52.11.266,facelocalization,2020.1.2,Win32,60,0.359259278,0.104629624,1,0,0,0.598175,19,0,336,336,195,1,5
,,,,,,-0.119444433,0.010185178,1,0,0,0.40181,F,,,,,,-0.254556,0.254556,,jy,3032750736,21,Male,Right,Mouse,Corrected,2021-04-06_01h52.11.266,facelocalization,2020.1.2,Win32,60,-0.276851843,0.227777774,1,0,0,0.53175,1,0,337,337,18,1,1
,,,,,,-0.137036969,-0.012037045,1,0,0,0.39893,F,,,,,,-0.36,0,,jy,3032750736,21,Male,Right,Mouse,Corrected,2021-04-06_01h52.11.266,facelocalization,2020.1.2,Win32,60,-0.34351851,-0.034259267,1,0,0,0.49749,14,0,338,338,168,1,4
,,,,,,0.172222238,-0.011111119,1,0,0,0.351925,M,,,,,,0.332586,0.137754,,jy,3032750736,21,Male,Right,Mouse,Corrected,2021-04-06_01h52.11.266,facelocalization,2020.1.2,Win32,60,0.434259392,0.137962929,1,0,0,0.714815,11,0,339,339,99,1,3
,,,,,,-0.13148147,-0.012962971,1,0,0,0.42921,F,,,,,,0.332586,-0.137754,,jy,3032750736,21,Male,Right,Mouse,Corrected,2021-04-06_01h52.11.266,facelocalization,2020.1.2,Win32,60,0.323148279,-0.183333344,1,0,0,0.63423,14,0,340,340,189,1,4
,,,,,,-0.135185174,-0.014814822,1,0,0,0.46504,F,,,,,,-0.18,0.31176,,jy,3032750736,21,Male,Right,Mouse,Corrected,2021-04-06_01h52.11.266,facelocalization,2020.1.2,Win32,60,-0.193518508,0.270370353,1,0,0,0.631505,3,0,341,341,16,1,1
,,,,,,0.155555571,-0.003703711,1,0,0,0.468,M,,,,,,-0.21915,0.285606,,jy,3032750736,21,Male,Right,Mouse,Corrected,2021-04-06_01h52.11.266,facelocalization,2020.1.2,Win32,60,-0.177777767,0.226851848,1,0,0,0.59872,6,0,342,342,65,1,2
,,,,,,-0.117592581,0.000925918,1,0,0,0.418335,F,,,,,,0.093168,0.347724,,jy,3032750736,21,Male,Right,Mouse,Corrected,2021-04-06_01h52.11.266,facelocalization,2020.1.2,Win32,60,0.076851866,0.323148146,1,0,0,0.58122,17,0,343,343,202,1,5
,,,,,,0.14444446,-0.02685186,1,0,0,0.49624,M,,,,,,-0.285606,0.21915,,jy,3032750736,21,Male,Right,Mouse,Corrected,2021-04-06_01h52.11.266,facelocalization,2020.1.2,Win32,60,-0.299074065,0.18518518,1,0,0,0.61691,18,0,344,344,211,1,5
,,,,,,-0.142592581,-0.011111119,1,0,0,0.33548,F,,,,,,-0.332586,0.137754,,jy,3032750736,21,Male,Right,Mouse,Corrected,2021-04-06_01h52.11.266,facelocalization,2020.1.2,Win32,60,-0.324074066,0.086111105,1,0,0,0.59784,23,0,345,345,261,1,6
,,,,,,0.098148163,-0.015740748,1,0,0,0.89999,M,,,,,,0.093168,0.347724,,jy,3032750736,21,Male,Right,Mouse,Corrected,2021-04-06_01h52.11.266,facelocalization,2020.1.2,Win32,60,0.060185199,0.306481479,1,0,0,0.612095,21,0,346,346,250,1,6
,,,,,,-0.130555544,0.021296289,1,0,0,0.497555,F,,,,,,0.36,0,,jy,3032750736,21,Male,Right,Mouse,Corrected,2021-04-06_01h52.11.266,facelocalization,2020.1.2,Win32,60,0.363888908,0.003703696,1,0,0,0.532535,14,0,347,347,144,1,4
,,,,,,-0.135185174,-0.018518526,1,0,0,0.38231,F,,,,,,-0.332586,-0.137754,,jy,3032750736,21,Male,Right,Mouse,Corrected,2021-04-06_01h52.11.266,facelocalization,2020.1.2,Win32,60,-0.337962955,-0.17962964,1,0,0,0.617455,10,0,348,348,123,1,3
,,,,,,-0.13240734,-0.025925934,1,0,0,0.39568,F,,,,,,-0.18,-0.31176,,jy,3032750736,21,Male,Right,Mouse,Corrected,2021-04-06_01h52.11.266,facelocalization,2020.1.2,Win32,60,-0.198148138,-0.358333403,1,0,0,0.717595,4,0,349,349,32,1,1
,,,,,,-0.160185118,0.006481474,1,0,0,0.382405,F,,,,,,-0.04698,0.356904,,jy,3032750736,21,Male,Right,Mouse,Corrected,2021-04-06_01h52.11.266,facelocalization,2020.1.2,Win32,60,-0.04259258,0.338888886,1,0,0,0.5978,4,0,350,350,13,1,1
,,,,,,-0.186111101,-0.006481489,1,0,0,0.451585,F,,,,,,0.347724,-0.093168,,jy,3032750736,21,Male,Right,Mouse,Corrected,2021-04-06_01h52.11.266,facelocalization,2020.1.2,Win32,60,0.312962981,-0.11111112,1,0,0,0.714655,2,0,351,351,46,1,1
,,,,,,-0.166666656,0.009259252,1,0,0,0.384645,F,,,,,,-0.31176,0.18,,jy,3032750736,21,Male,Right,Mouse,Corrected,2021-04-06_01h52.11.266,facelocalization,2020.1.2,Win32,60,-0.330555547,0.162962958,1,0,0,0.54547,19,0,352,352,212,1,5
,,,,,,-0.076851783,0.000925918,1,0,0,0.484675,F,,,,,,0.285606,0.21915,,jy,3032750736,21,Male,Right,Mouse,Corrected,2021-04-06_01h52.11.266,facelocalization,2020.1.2,Win32,60,0.330555574,0.262037033,1,0,0,0.597945,20,0,353,353,197,1,5
,,,,,,0.196296312,0.008333326,1,0,0,0.41474,M,,,,,,0.347724,-0.093168,,jy,3032750736,21,Male,Right,Mouse,Corrected,2021-04-06_01h52.11.266,facelocalization,2020.1.2,Win32,60,0.397222354,-0.127777787,1,0,0,0.61483,6,0,354,354,94,1,2
,,,,,,0.165740756,-0.001851859,1,0,0,0.432615,M,,,,,,0.332586,0.137754,,jy,3032750736,21,Male,Right,Mouse,Corrected,2021-04-06_01h52.11.266,facelocalization,2020.1.2,Win32,60,0.340740759,0.121296291,1,0,0,0.63043,16,0,355,355,147,1,4
,,,,,,-0.174074007,-0.011111119,1,0,0,0.365235,F,,,,,,-0.18,-0.31176,,jy,3032750736,21,Male,Right,Mouse,Corrected,2021-04-06_01h52.11.266,facelocalization,2020.1.2,Win32,60,-0.1611111,-0.319444457,1,0,0,0.58148,32,0,356,356,368,1,8
,,,,,,-0.159259248,0.0074074,1,0,0,0.46902,F,,,,,,0.21915,0.285606,,jy,3032750736,21,Male,Right,Mouse,Corrected,2021-04-06_01h52.11.266,facelocalization,2020.1.2,Win32,60,0.177777794,0.250925922,1,0,0,0.68148,17,0,357,357,199,1,5
,,,,,,-0.175925915,0.000925918,1,0,0,0.39878,F,,,,,,-0.31176,-0.18,,jy,3032750736,21,Male,Right,Mouse,Corrected,2021-04-06_01h52.11.266,facelocalization,2020.1.2,Win32,60,-0.400925919,-0.214814882,1,0,0,0.61504,4,0,358,358,28,1,1
,,,,,,-0.166666656,-0.019444452,1,0,0,0.43209,F,,,,,,0,0.36,,jy,3032750736,21,Male,Right,Mouse,Corrected,2021-04-06_01h52.11.266,facelocalization,2020.1.2,Win32,60,0.004629643,0.331481479,1,0,0,0.55153,29,0,359,359,348,1,8
,,,,,,-0.13240734,0.012962956,1,0,0,0.351365,F,,,,,,-0.093168,0.347724,,jy,3032750736,21,Male,Right,Mouse,Corrected,2021-04-06_01h52.11.266,facelocalization,2020.1.2,Win32,60,-0.099999932,0.327777775,1,0,0,0.581305,31,0,360,360,350,1,8
,,,,,,0.157407423,-0.023148156,1,0,0,0.332545,M,,,,,,0.356904,-0.04698,,jy,3032750736,21,Male,Right,Mouse,Corrected,2021-04-06_01h52.11.266,facelocalization,2020.1.2,Win32,60,0.339814833,-0.083333342,1,0,0,0.664335,10,0,361,361,143,1,3
,,,,,,-0.162962952,0.0074074,1,0,0,0.42929,F,,,,,,0.21915,-0.285606,,jy,3032750736,21,Male,Right,Mouse,Corrected,2021-04-06_01h52.11.266,facelocalization,2020.1.2,Win32,60,0.254629647,-0.293518587,1,0,0,0.568045,18,0,362,362,233,1,5
,,,,,,-0.120370359,-0.0175926,1,0,0,0.434675,F,,,,,,0.137754,-0.332586,,jy,3032750736,21,Male,Right,Mouse,Corrected,2021-04-06_01h52.11.266,facelocalization,2020.1.2,Win32,60,0.145370386,-0.329629642,1,0,0,0.664495,20,0,363,363,231,1,5
,,,,,,-0.16574073,0.016666659,1,0,0,0.44859,F,,,,,,0.137754,-0.332586,,jy,3032750736,21,Male,Right,Mouse,Corrected,2021-04-06_01h52.11.266,facelocalization,2020.1.2,Win32,60,0.141666682,-0.358333403,1,0,0,0.58148,1,0,364,364,39,1,1
,,,,,,-0.148148137,0.023148141,1,0,0,0.48419,F,,,,,,0,0.36,,jy,3032750736,21,Male,Right,Mouse,Corrected,2021-04-06_01h52.11.266,facelocalization,2020.1.2,Win32,60,0.026851865,0.397222221,1,0,0,0.58179,15,0,365,365,156,1,4
,,,,,,0.187962979,-0.019444452,1,0,0,0.498975,M,,,,,,-0.04698,-0.356904,,jy,3032750736,21,Male,Right,Mouse,Corrected,2021-04-06_01h52.11.266,facelocalization,2020.1.2,Win32,60,0.011111181,-0.411111125,1,0,0,0.61463,10,0,366,366,131,1,3
,,,,,,-0.187037027,0.016666659,1,0,0,0.41307,F,,,,,,0.18,0.31176,,jy,3032750736,21,Male,Right,Mouse,Corrected,2021-04-06_01h52.11.266,facelocalization,2020.1.2,Win32,60,0.198148164,0.32222222,1,0,0,0.633435,3,0,367,367,8,1,1
,,,,,,0.127777793,-0.04722223,1,0,0,0.531355,M,,,,,,-0.285606,-0.21915,,jy,3032750736,21,Male,Right,Mouse,Corrected,2021-04-06_01h52.11.266,facelocalization,2020.1.2,Win32,60,-0.242592583,-0.305555568,1,0,0,0.601475,22,0,368,368,269,1,6
,,,,,,0.156481497,0.00277777,1,0,0,0.464905,M,,,,,,0.347724,-0.093168,,jy,3032750736,21,Male,Right,Mouse,Corrected,2021-04-06_01h52.11.266,facelocalization,2020.1.2,Win32,60,0.345370389,-0.138888898,1,0,0,0.631695,29,0,369,369,382,1,8
,,,,,,0.113888904,-0.030555563,1,0,0,0.435815,M,,,,,,0,0.36,,jy,3032750736,21,Male,Right,Mouse,Corrected,2021-04-06_01h52.11.266,facelocalization,2020.1.2,Win32,60,-0.053703635,0.320370368,1,0,0,0.614195,18,0,370,370,204,1,5
,,,,,,0.115740756,-0.014814822,1,0,0,0.47891,M,,,,,,-0.31176,-0.18,,jy,3032750736,21,Male,Right,Mouse,Corrected,2021-04-06_01h52.11.266,facelocalization,2020.1.2,Win32,60,-0.370370363,-0.20462964,1,0,0,0.601315,10,0,371,371,124,1,3
,,,,,,0.13981483,-0.020370378,1,0,0,0.678875,M,,,,,,-0.332586,0.137754,,jy,3032750736,21,Male,Right,Mouse,Corrected,2021-04-06_01h52.11.266,facelocalization,2020.1.2,Win32,60,-0.287962954,0.078703697,1,0,0,0.913515,7,0,372,372,69,1,2
,,,,,,-0.189814804,0.03703703,1,0,0,0.451555,F,,,,,,-0.21915,0.285606,,jy,3032750736,21,Male,Right,Mouse,Corrected,2021-04-06_01h52.11.266,facelocalization,2020.1.2,Win32,60,-0.270370361,0.303703701,1,0,0,0.69501,17,0,373,373,209,1,5
,,,,,,-0.1611111,0.019444437,1,0,0,0.51796,F,,,,,,-0.254556,0.254556,,jy,3032750736,21,Male,Right,Mouse,Corrected,2021-04-06_01h52.11.266,facelocalization,2020.1.2,Win32,60,-0.365740733,0.254629626,1,0,0,0.59569,13,0,374,374,162,1,4
,,,,,,0.182407423,0.01203703,1,0,0,0.33364,M,,,,,,0.31176,0.18,,jy,3032750736,21,Male,Right,Mouse,Corrected,2021-04-06_01h52.11.266,facelocalization,2020.1.2,Win32,60,0.293518536,0.148148143,1,0,0,0.683815,5,0,375,375,52,1,2
,,,,,,-0.125925915,-0.013888897,1,0,0,0.43224,F,,,,,,0.356904,0.04698,,jy,3032750736,21,Male,Right,Mouse,Corrected,2021-04-06_01h52.11.266,facelocalization,2020.1.2,Win32,60,0.353703722,0.035185178,1,0,0,0.6312,18,0,376,376,193,1,5
,,,,,,-0.171296286,-0.065740749,1,0,0,0.415545,F,,,,,,-0.285606,-0.21915,,jy,3032750736,21,Male,Right,Mouse,Corrected,2021-04-06_01h52.11.266,facelocalization,2020.1.2,Win32,60,-0.28518512,-0.232407418,1,0,0,0.59791,28,0,377,377,317,1,7
,,,,,,-0.152777767,0.010185178,1,0,0,0.487585,F,,,,,,-0.332586,-0.137754,,jy,3032750736,21,Male,Right,Mouse,Corrected,2021-04-06_01h52.11.266,facelocalization,2020.1.2,Win32,60,-0.338888881,-0.130555565,1,0,0,0.647545,28,0,378,378,315,1,7
,,,,,,-0.148148137,0.001851844,1,0,0,0.368125,F,,,,,,-0.332586,-0.137754,,jy,3032750736,21,Male,Right,Mouse,Corrected,2021-04-06_01h52.11.266,facelocalization,2020.1.2,Win32,60,-0.312037028,-0.127777787,1,0,0,0.99654,18,0,379,379,219,1,5
,,,,,,-0.199074064,-0.037962971,1,0,0,0.41538,F,,,,,,0.254556,0.254556,,jy,3032750736,21,Male,Right,Mouse,Corrected,2021-04-06_01h52.11.266,facelocalization,2020.1.2,Win32,60,0.256481499,0.2537037,1,0,0,0.814285,14,0,380,380,150,1,4
,,,,,,-0.166666656,-0.008333341,1,0,0,0.43187,F,,,,,,-0.36,0,,jy,3032750736,21,Male,Right,Mouse,Corrected,2021-04-06_01h52.11.266,facelocalization,2020.1.2,Win32,60,-0.362962955,-7.4558E-09,1,0,0,0.59846,9,0,381,381,120,1,3
,,,,,,-0.110185174,0.038888882,1,0,0,0.485415,F,,,,,,-0.137754,0.332586,,jy,3032750736,21,Male,Right,Mouse,Corrected,2021-04-06_01h52.11.266,facelocalization,2020.1.2,Win32,60,-0.209259249,0.266666663,1,0,0,0.58095,30,0,382,382,351,1,8
,,,,,,-0.147222211,-0.036111119,1,0,0,0.38228,F,,,,,,0.04698,0.356904,,jy,3032750736,21,Male,Right,Mouse,Corrected,2021-04-06_01h52.11.266,facelocalization,2020.1.2,Win32,60,0.073148162,0.364814813,1,0,0,0.631225,15,0,383,383,155,1,4
,,,,,,0.128703719,0.006481474,1,0,0,0.631365,M,,,,,,-0.093168,-0.347724,,jy,3032750736,21,Male,Right,Mouse,Corrected,2021-04-06_01h52.11.266,facelocalization,2020.1.2,Win32,60,-0.100925914,-0.400925939,1,0,0,1.044665,27,1,0,384,322,1,7
,,,,,,-0.12777771,0.012962956,1,0,0,0.415625,F,,,,,,0.137754,-0.332586,,jy,3032750736,21,Male,Right,Mouse,Corrected,2021-04-06_01h52.11.266,facelocalization,2020.1.2,Win32,60,0.1351852,-0.334259272,1,0,0,0.598075,2,1,1,385,39,1,1
,,,,,,0.170370386,0.001851844,1,0,0,0.63066,M,,,,,,-0.254556,0.254556,,jy,3032750736,21,Male,Right,Mouse,Corrected,2021-04-06_01h52.11.266,facelocalization,2020.1.2,Win32,60,-0.283333324,0.288888872,1,0,0,0.67985,7,1,2,386,66,1,2
,,,,,,0.116666682,-0.002777785,1,0,0,0.63654,M,,,,,,0.18,0.31176,,jy,3032750736,21,Male,Right,Mouse,Corrected,2021-04-06_01h52.11.266,facelocalization,2020.1.2,Win32,60,0.201851868,0.315740738,1,0,0,0.59781,9,1,3,387,104,1,3
,,,,,,-0.169444377,-0.039814823,1,0,0,0.59784,F,,,,,,-0.137754,-0.332586,,jy,3032750736,21,Male,Right,Mouse,Corrected,2021-04-06_01h52.11.266,facelocalization,2020.1.2,Win32,60,-0.163888878,-0.380555569,1,0,0,0.615095,3,1,4,388,33,1,1
,,,,,,-0.1611111,0.004629622,1,0,0,0.51555,F,,,,,,-0.31176,0.18,,jy,3032750736,21,Male,Right,Mouse,Corrected,2021-04-06_01h52.11.266,facelocalization,2020.1.2,Win32,60,-0.37777777,0.213888885,1,0,0,0.53138,24,1,5,389,260,1,6
,,,,,,0.186111127,-0.012962971,1,0,0,0.398995,M,,,,,,0.254556,-0.254556,,jy,3032750736,21,Male,Right,Mouse,Corrected,2021-04-06_01h52.11.266,facelocalization,2020.1.2,Win32,60,0.296296314,-0.315740753,1,0,0,0.797305,8,1,6,390,90,1,2
,,,,,,0.096296311,-0.031481489,1,0,0,0.366065,M,,,,,,0.31176,0.18,,jy,3032750736,21,Male,Right,Mouse,Corrected,2021-04-06_01h52.11.266,facelocalization,2020.1.2,Win32,60,0.325000018,0.1333333,1,0,0,0.547485,21,1,7,391,244,1,6
,,,,,,0.187037053,0.011111104,1,0,0,0.46536,M,,,,,,-0.332586,-0.137754,,jy,3032750736,21,Male,Right,Mouse,Corrected,2021-04-06_01h52.11.266,facelocalization,2020.1.2,Win32,60,-0.333333325,-0.140740807,1,0,0,0.764575,21,1,8,392,267,1,6
,,,,,,-0.137036969,0.020370363,1,0,0,0.465,F,,,,,,0.21915,0.285606,,jy,3032750736,21,Male,Right,Mouse,Corrected,2021-04-06_01h52.11.266,facelocalization,2020.1.2,Win32,60,0.235185202,0.276851849,1,0,0,0.63149,18,1,9,393,199,1,5
,,,,,,-0.148148137,0.006481474,1,0,0,0.52847,F,,,,,,0.285606,0.21915,,jy,3032750736,21,Male,Right,Mouse,Corrected,2021-04-06_01h52.11.266,facelocalization,2020.1.2,Win32,60,0.253703721,0.172222217,1,0,0,0.601295,20,1,10,394,197,1,5
,,,,,,-0.16574073,0.017592585,1,0,0,0.452045,F,,,,,,0.137754,-0.332586,,jy,3032750736,21,Male,Right,Mouse,Corrected,2021-04-06_01h52.11.266,facelocalization,2020.1.2,Win32,60,0.116666682,-0.306481493,1,0,0,0.615105,20,1,11,395,231,1,5
,,,,,,-0.148148137,0.003703696,1,0,0,0.531925,F,,,,,,0.093168,-0.347724,,jy,3032750736,21,Male,Right,Mouse,Corrected,2021-04-06_01h52.11.266,facelocalization,2020.1.2,Win32,60,0.127777793,-0.397222236,1,0,0,0.63141,18,1,12,396,230,1,5
,,,,,,0.154629645,0.019444437,1,0,0,0.48184,M,,,,,,0.137754,-0.332586,,jy,3032750736,21,Male,Right,Mouse,Corrected,2021-04-06_01h52.11.266,facelocalization,2020.1.2,Win32,60,0.133333349,-0.348148161,1,0,0,0.74764,6,1,13,397,87,1,2
,,,,,,-0.150925858,-0.012037045,1,0,0,0.41986,F,,,,,,-0.36,0,,jy,3032750736,21,Male,Right,Mouse,Corrected,2021-04-06_01h52.11.266,facelocalization,2020.1.2,Win32,60,-0.321296288,0.010185178,1,0,0,0.930475,29,1,14,398,360,1,8
,,,,,,-0.185185175,0.001851844,1,0,0,0.469665,F,,,,,,0.285606,0.21915,,jy,3032750736,21,Male,Right,Mouse,Corrected,2021-04-06_01h52.11.266,facelocalization,2020.1.2,Win32,60,0.31851865,0.210185181,1,0,0,0.648055,31,1,15,399,341,1,8
,,,,,,-0.149074063,-0.038888897,1,0,0,0.51527,F,,,,,,0.254556,-0.254556,,jy,3032750736,21,Male,Right,Mouse,Corrected,2021-04-06_01h52.11.266,facelocalization,2020.1.2,Win32,60,0.19907409,-0.232407418,1,0,0,0.731085,29,1,16,400,378,1,8
,,,,,,-0.162962952,0.035185178,1,0,0,0.564595,F,,,,,,0.21915,-0.285606,,jy,3032750736,21,Male,Right,Mouse,Corrected,2021-04-06_01h52.11.266,facelocalization,2020.1.2,Win32,60,0.223148165,-0.319444457,1,0,0,0.81468,21,1,17,401,281,1,6
,,,,,,-0.1611111,-0.015740748,1,0,0,0.664745,F,,,,,,-0.137754,-0.332586,,jy,3032750736,21,Male,Right,Mouse,Corrected,2021-04-06_01h52.11.266,facelocalization,2020.1.2,Win32,60,-0.124074063,-0.39629631,1,0,0,0.64778,26,1,18,402,321,1,7
,,,,,,-0.135185174,0.006481474,1,0,0,0.398565,F,,,,,,-0.36,0,,jy,3032750736,21,Male,Right,Mouse,Corrected,2021-04-06_01h52.11.266,facelocalization,2020.1.2,Win32,60,-0.340740733,0.006481474,1,0,0,0.664885,24,1,19,403,264,1,6
,,,,,,-0.143518507,0.040740706,1,0,0,0.431815,F,,,,,,-0.093168,0.347724,,jy,3032750736,21,Male,Right,Mouse,Corrected,2021-04-06_01h52.11.266,facelocalization,2020.1.2,Win32,60,-0.070370358,0.371296294,1,0,0,0.64789,11,1,20,404,110,1,3
,,,,,,-0.172222212,0.023148141,1,0,0,0.34871,F,,,,,,-0.04698,-0.356904,,jy,3032750736,21,Male,Right,Mouse,Corrected,2021-04-06_01h52.11.266,facelocalization,2020.1.2,Win32,60,-0.034259247,-0.390740811,1,0,0,0.664335,19,1,21,405,227,1,5
,,,,,,-0.150925858,-0.043518527,1,0,0,0.398595,F,,,,,,0.04698,-0.356904,,jy,3032750736,21,Male,Right,Mouse,Corrected,2021-04-06_01h52.11.266,facelocalization,2020.1.2,Win32,60,0.048148219,-0.368518531,1,0,0,0.947005,1,1,22,406,37,1,1
,,,,,,0.153703719,-0.02685186,1,0,0,0.64841,M,,,,,,0.04698,0.356904,,jy,3032750736,21,Male,Right,Mouse,Corrected,2021-04-06_01h52.11.266,facelocalization,2020.1.2,Win32,60,0.050000014,0.352777776,1,0,0,0.83077,32,1,23,407,347,1,8
,,,,,,0.184259275,0.001851844,1,0,0,0.396105,M,,,,,,0.332586,-0.137754,,jy,3032750736,21,Male,Right,Mouse,Corrected,2021-04-06_01h52.11.266,facelocalization,2020.1.2,Win32,60,0.412962982,-0.133333343,1,0,0,0.80034,24,1,24,408,285,1,6
,,,,,,0.152777793,0.009259252,1,0,0,0.49878,M,,,,,,-0.21915,-0.285606,,jy,3032750736,21,Male,Right,Mouse,Corrected,2021-04-06_01h52.11.266,facelocalization,2020.1.2,Win32,60,-0.241666657,-0.302777846,1,0,0,0.646815,6,1,25,409,79,1,2
,,,,,,0.160185201,-0.020370378,1,0,0,0.498495,M,,,,,,-0.04698,0.356904,,jy,3032750736,21,Male,Right,Mouse,Corrected,2021-04-06_01h52.11.266,facelocalization,2020.1.2,Win32,60,-0.059259247,0.349999998,1,0,0,0.747825,22,1,26,410,253,1,6
,,,,,,0.086111126,0.003703696,1,0,0,0.46522,M,,,,,,-0.347724,0.093168,,jy,3032750736,21,Male,Right,Mouse,Corrected,2021-04-06_01h52.11.266,facelocalization,2020.1.2,Win32,60,-0.388888881,0.065740734,1,0,0,0.631325,22,1,27,411,262,1,6
,,,,,,0.183333349,-0.033333341,1,0,0,1.04957,M,,,,,,0.356904,0.04698,,jy,3032750736,21,Male,Right,Mouse,Corrected,2021-04-06_01h52.11.266,facelocalization,2020.1.2,Win32,60,0.380555574,0.021296289,1,0,0,0.81433,25,1,28,412,289,1,7
,,,,,,-0.14074073,0.067592586,1,0,0,0.451505,F,,,,,,-0.18,-0.31176,,jy,3032750736,21,Male,Right,Mouse,Corrected,2021-04-06_01h52.11.266,facelocalization,2020.1.2,Win32,60,-0.184259249,-0.341666679,1,0,0,0.781145,19,1,29,413,224,1,5
,,,,,,-0.177777767,-0.018518526,1,0,0,0.503155,F,,,,,,-0.04698,-0.356904,,jy,3032750736,21,Male,Right,Mouse,Corrected,2021-04-06_01h52.11.266,facelocalization,2020.1.2,Win32,60,-0.011111098,-0.39537044,1,0,0,0.64492,8,1,30,414,83,1,2
,,,,,,-0.129629618,-0.02685186,1,0,0,0.44889,F,,,,,,-0.18,-0.31176,,jy,3032750736,21,Male,Right,Mouse,Corrected,2021-04-06_01h52.11.266,facelocalization,2020.1.2,Win32,60,-0.187962896,-0.340740753,1,0,0,0.730845,13,1,31,415,176,1,4
,,,,,,0.167592608,-0.018518526,1,0,0,0.412905,M,,,,,,0.18,0.31176,,jy,3032750736,21,Male,Right,Mouse,Corrected,2021-04-06_01h52.11.266,facelocalization,2020.1.2,Win32,60,0.190740757,0.287037034,1,0,0,0.800265,6,1,32,416,56,1,2
,,,,,,0.155555571,-0.0175926,1,0,0,0.59565,M,,,,,,-0.21915,0.285606,,jy,3032750736,21,Male,Right,Mouse,Corrected,2021-04-06_01h52.11.266,facelocalization,2020.1.2,Win32,60,-0.196296286,0.279629612,1,0,0,0.76456,27,1,33,417,305,1,7
,,,,,,0.176851868,-0.006481489,1,0,0,0.565055,M,,,,,,-0.18,0.31176,,jy,3032750736,21,Male,Right,Mouse,Corrected,2021-04-06_01h52.11.266,facelocalization,2020.1.2,Win32,60,-0.1611111,0.299074071,1,0,0,0.76407,23,1,34,418,256,1,6
