mouse_2.x,mouse_2.y,mouse_2.leftButton,mouse_2.midButton,mouse_2.rightButton,mouse_2.time,mouse_gender_task.x,mouse_gender_task.y,mouse_gender_task.leftButton,mouse_gender_task.midButton,mouse_gender_task.rightButton,mouse_gender_task.time,mouse_gender_task.clicked_name,demo.thisRepN,demo.thisTrialN,demo.thisN,demo.thisIndex,demo.ran,coex,coey,imageFile,participant,Student ID number (this is for RPP purpose only),Age,Gender,Handedness,"In this experiment, you need to constantly adjust the position of your cursor. what tool are your using to complete this experiment (mouse, trackpad,etc)?",Do you have normal or correct to normal vision?,date,expName,psychopyVersion,OS,frameRate,mouse.x,mouse.y,mouse.leftButton,mouse.midButton,mouse.rightButton,mouse.time,imageNum,trials.thisRepN,trials.thisTrialN,trials.thisN,trials.thisIndex,trials.ran,cond
0.26,-0.25125,1,0,0,4.736,-0.135,0.0125,1,0,0,3.05,F,0,0,0,0,1,0.254556,-0.254556,1.bmp,lsc,mdzz,22,female,right,mouse,yes,2020-12-12_10h33.47.787,facelocalization,2020.1.2,MacIntel,60,,,,,,,,,,,,,
-0.1,0.35,1,0,0,2.567,0.1375,-0.0025,1,0,0,1.233,M,0,1,1,5,1,-0.093168,0.347724,21.bmp,lsc,mdzz,22,female,right,mouse,yes,2020-12-12_10h33.47.787,facelocalization,2020.1.2,MacIntel,60,,,,,,,,,,,,,
-0.1975,-0.27,1,0,0,1.684,0.15125,-0.01,1,0,0,0.9,M,0,2,2,1,1,-0.21915,-0.285606,5.bmp,lsc,mdzz,22,female,right,mouse,yes,2020-12-12_10h33.47.787,facelocalization,2020.1.2,MacIntel,60,,,,,,,,,,,,,
-0.3175,0.14875,1,0,0,1.483,-0.23,0.02875,1,0,0,1.285,F,0,3,3,7,1,-0.332586,0.137754,29.bmp,lsc,mdzz,22,female,right,mouse,yes,2020-12-12_10h33.47.787,facelocalization,2020.1.2,MacIntel,60,,,,,,,,,,,,,
0.3275,0.2225,1,0,0,1.65,-0.145,0.01625,1,0,0,0.716,F,0,4,4,4,1,0.285606,0.21915,17.bmp,lsc,mdzz,22,female,right,mouse,yes,2020-12-12_10h33.47.787,facelocalization,2020.1.2,MacIntel,60,,,,,,,,,,,,,
0.28625,-0.23,1,0,0,1.65,-0.14125,0.02625,1,0,0,0.584,F,0,5,5,6,1,0.285606,-0.21915,25.bmp,lsc,mdzz,22,female,right,mouse,yes,2020-12-12_10h33.47.787,facelocalization,2020.1.2,MacIntel,60,,,,,,,,,,,,,
0.165,0.31875,1,0,0,1.632,0.13125,0.00875,1,0,0,0.935,M,0,6,6,3,1,0.137754,0.332586,13.bmp,lsc,mdzz,22,female,right,mouse,yes,2020-12-12_10h33.47.787,facelocalization,2020.1.2,MacIntel,60,,,,,,,,,,,,,
-0.24125,0.225,1,0,0,1.65,0.11,0.00375,1,0,0,0.667,M,0,7,7,2,1,-0.285606,0.21915,9.bmp,lsc,mdzz,22,female,right,mouse,yes,2020-12-12_10h33.47.787,facelocalization,2020.1.2,MacIntel,60,,,,,,,,,,,,,
,,,,,,-0.18,0.02125,1,0,0,0.815,F,,,,,,-0.18,0.31176,,lsc,mdzz,22,female,right,mouse,yes,2020-12-12_10h33.47.787,facelocalization,2020.1.2,MacIntel,60,-0.21625,0.3175,1,0,0,1.435,31,0,0,0,352,1,8
,,,,,,0.1325,0.00375,1,0,0,0.584,M,,,,,,-0.04698,-0.356904,,lsc,mdzz,22,female,right,mouse,yes,2020-12-12_10h33.47.787,facelocalization,2020.1.2,MacIntel,60,-0.01625,-0.36125,1,0,0,1.034,26,0,1,1,323,1,7
,,,,,,0.13875,0.00125,1,0,0,0.55,M,,,,,,0,-0.36,,lsc,mdzz,22,female,right,mouse,yes,2020-12-12_10h33.47.787,facelocalization,2020.1.2,MacIntel,60,-0.00625,-0.35625,1,0,0,1.117,26,0,2,2,324,1,7
,,,,,,0.1375,-0.0025,1,0,0,0.601,M,,,,,,-0.137754,-0.332586,,lsc,mdzz,22,female,right,mouse,yes,2020-12-12_10h33.47.787,facelocalization,2020.1.2,MacIntel,60,-0.11875,-0.3525,1,0,0,1.033,22,0,3,3,273,1,6
,,,,,,-0.17,-0.00125,1,0,0,0.516,F,,,,,,-0.21915,-0.285606,,lsc,mdzz,22,female,right,mouse,yes,2020-12-12_10h33.47.787,facelocalization,2020.1.2,MacIntel,60,-0.185,-0.305,1,0,0,0.983,12,0,4,4,127,1,3
,,,,,,-0.13625,0.00875,1,0,0,0.585,F,,,,,,0.31176,-0.18,,lsc,mdzz,22,female,right,mouse,yes,2020-12-12_10h33.47.787,facelocalization,2020.1.2,MacIntel,60,0.30125,-0.185,1,0,0,1.016,27,0,5,5,332,1,7
,,,,,,-0.17,0.00125,1,0,0,0.483,F,,,,,,0.21915,0.285606,,lsc,mdzz,22,female,right,mouse,yes,2020-12-12_10h33.47.787,facelocalization,2020.1.2,MacIntel,60,0.19,0.27375,1,0,0,1.05,25,0,6,6,295,1,7
,,,,,,0.11125,0.00125,1,0,0,0.585,M,,,,,,-0.254556,-0.254556,,lsc,mdzz,22,female,right,mouse,yes,2020-12-12_10h33.47.787,facelocalization,2020.1.2,MacIntel,60,-0.26375,-0.2525,1,0,0,1.083,28,0,7,7,318,1,7
,,,,,,-0.145,-0.00125,1,0,0,0.566,F,,,,,,-0.347724,0.093168,,lsc,mdzz,22,female,right,mouse,yes,2020-12-12_10h33.47.787,facelocalization,2020.1.2,MacIntel,60,-0.31875,0.08875,1,0,0,1.117,12,0,8,8,118,1,3
,,,,,,-0.13875,-0.005,1,0,0,0.717,F,,,,,,-0.04698,0.356904,,lsc,mdzz,22,female,right,mouse,yes,2020-12-12_10h33.47.787,facelocalization,2020.1.2,MacIntel,60,0,0.325,1,0,0,1.234,14,0,9,9,157,1,4
,,,,,,0.18375,-0.01875,1,0,0,0.499,M,,,,,,-0.347724,-0.093168,,lsc,mdzz,22,female,right,mouse,yes,2020-12-12_10h33.47.787,facelocalization,2020.1.2,MacIntel,60,-0.34375,-0.095,1,0,0,1.181,32,0,10,10,362,1,8
,,,,,,0.16375,0.0125,1,0,0,0.533,M,,,,,,0.21915,0.285606,,lsc,mdzz,22,female,right,mouse,yes,2020-12-12_10h33.47.787,facelocalization,2020.1.2,MacIntel,60,0.2275,0.25875,1,0,0,1.15,9,0,11,11,103,1,3
,,,,,,-0.11875,0.02375,1,0,0,0.782,F,,,,,,-0.36,0,,lsc,mdzz,22,female,right,mouse,yes,2020-12-12_10h33.47.787,facelocalization,2020.1.2,MacIntel,60,-0.325,0,1,0,0,1.067,29,0,12,12,360,1,8
,,,,,,0.18,-0.0025,1,0,0,0.65,M,,,,,,-0.332586,-0.137754,,lsc,mdzz,22,female,right,mouse,yes,2020-12-12_10h33.47.787,facelocalization,2020.1.2,MacIntel,60,-0.3025,-0.1275,1,0,0,1.117,32,0,13,13,363,1,8
,,,,,,-0.14625,0.0425,1,0,0,0.567,F,,,,,,0.285606,-0.21915,,lsc,mdzz,22,female,right,mouse,yes,2020-12-12_10h33.47.787,facelocalization,2020.1.2,MacIntel,60,0.28875,-0.20375,1,0,0,1.134,20,0,14,14,235,1,5
,,,,,,0.1225,0.0125,1,0,0,0.5,M,,,,,,0.18,0.31176,,lsc,mdzz,22,female,right,mouse,yes,2020-12-12_10h33.47.787,facelocalization,2020.1.2,MacIntel,60,0.22375,0.31375,1,0,0,1.217,22,0,15,15,248,1,6
,,,,,,-0.15,0.00125,1,0,0,0.551,F,,,,,,0.04698,-0.356904,,lsc,mdzz,22,female,right,mouse,yes,2020-12-12_10h33.47.787,facelocalization,2020.1.2,MacIntel,60,0.0375,-0.37375,1,0,0,1.083,23,0,16,16,277,1,6
,,,,,,0.1225,0.0125,1,0,0,0.65,M,,,,,,0.356904,-0.04698,,lsc,mdzz,22,female,right,mouse,yes,2020-12-12_10h33.47.787,facelocalization,2020.1.2,MacIntel,60,0.38625,-0.01125,1,0,0,1.284,1,0,17,17,47,1,1
,,,,,,0.14875,-0.00125,1,0,0,0.651,M,,,,,,-0.285606,-0.21915,,lsc,mdzz,22,female,right,mouse,yes,2020-12-12_10h33.47.787,facelocalization,2020.1.2,MacIntel,60,-0.255,-0.2275,1,0,0,1.216,2,0,18,18,29,1,1
,,,,,,-0.14,0.00125,1,0,0,0.733,F,,,,,,-0.31176,0.18,,lsc,mdzz,22,female,right,mouse,yes,2020-12-12_10h33.47.787,facelocalization,2020.1.2,MacIntel,60,-0.26875,0.215,1,0,0,1.317,18,0,19,19,212,1,5
,,,,,,0.14375,0.00625,1,0,0,0.9,M,,,,,,0.356904,0.04698,,lsc,mdzz,22,female,right,mouse,yes,2020-12-12_10h33.47.787,facelocalization,2020.1.2,MacIntel,60,0.365,0.035,1,0,0,1.05,14,0,20,20,145,1,4
,,,,,,0.12875,-0.02375,1,0,0,0.583,M,,,,,,-0.356904,0.04698,,lsc,mdzz,22,female,right,mouse,yes,2020-12-12_10h33.47.787,facelocalization,2020.1.2,MacIntel,60,-0.33625,0.03625,1,0,0,0.999,27,0,21,21,311,1,7
,,,,,,-0.1675,-0.00375,1,0,0,0.634,F,,,,,,-0.356904,0.04698,,lsc,mdzz,22,female,right,mouse,yes,2020-12-12_10h33.47.787,facelocalization,2020.1.2,MacIntel,60,-0.3575,0.0525,1,0,0,1.217,14,0,22,22,167,1,4
,,,,,,-0.15875,0.01,1,0,0,0.75,F,,,,,,0.254556,-0.254556,,lsc,mdzz,22,female,right,mouse,yes,2020-12-12_10h33.47.787,facelocalization,2020.1.2,MacIntel,60,0.29375,-0.2375,1,0,0,1.2,14,0,23,23,186,1,4
,,,,,,-0.1525,0.00375,1,0,0,0.633,F,,,,,,-0.36,0,,lsc,mdzz,22,female,right,mouse,yes,2020-12-12_10h33.47.787,facelocalization,2020.1.2,MacIntel,60,-0.34375,0.025,1,0,0,1.316,18,0,24,24,216,1,5
,,,,,,0.1575,-0.0025,1,0,0,0.583,M,,,,,,-0.356904,-0.04698,,lsc,mdzz,22,female,right,mouse,yes,2020-12-12_10h33.47.787,facelocalization,2020.1.2,MacIntel,60,-0.3675,-0.01875,1,0,0,1.1,28,0,25,25,313,1,7
,,,,,,0.1525,-0.00375,1,0,0,0.817,M,,,,,,-0.356904,0.04698,,lsc,mdzz,22,female,right,mouse,yes,2020-12-12_10h33.47.787,facelocalization,2020.1.2,MacIntel,60,-0.32625,0.06,1,0,0,1.234,1,0,26,26,23,1,1
,,,,,,0.14,0.01375,1,0,0,0.583,M,,,,,,0.093168,-0.347724,,lsc,mdzz,22,female,right,mouse,yes,2020-12-12_10h33.47.787,facelocalization,2020.1.2,MacIntel,60,0.0875,-0.31,1,0,0,1.234,6,0,27,27,86,1,2
,,,,,,-0.1225,-0.02375,1,0,0,0.583,F,,,,,,-0.093168,0.347724,,lsc,mdzz,22,female,right,mouse,yes,2020-12-12_10h33.47.787,facelocalization,2020.1.2,MacIntel,60,-0.10875,0.31875,1,0,0,1.2,22,0,28,28,254,1,6
,,,,,,0.175,-0.01875,1,0,0,0.7,M,,,,,,-0.285606,0.21915,,lsc,mdzz,22,female,right,mouse,yes,2020-12-12_10h33.47.787,facelocalization,2020.1.2,MacIntel,60,-0.29625,0.2275,1,0,0,1.184,23,0,29,29,259,1,6
,,,,,,-0.14875,-0.0025,1,0,0,0.633,F,,,,,,0.332586,0.137754,,lsc,mdzz,22,female,right,mouse,yes,2020-12-12_10h33.47.787,facelocalization,2020.1.2,MacIntel,60,0.33125,0.09875,1,0,0,1.183,29,0,30,30,339,1,8
,,,,,,0.1625,0,1,0,0,0.566,M,,,,,,-0.04698,-0.356904,,lsc,mdzz,22,female,right,mouse,yes,2020-12-12_10h33.47.787,facelocalization,2020.1.2,MacIntel,60,-0.03125,-0.33625,1,0,0,1.2,10,0,31,31,131,1,3
,,,,,,-0.1375,0.005,1,0,0,0.583,F,,,,,,-0.137754,0.332586,,lsc,mdzz,22,female,right,mouse,yes,2020-12-12_10h33.47.787,facelocalization,2020.1.2,MacIntel,60,-0.14,0.33125,1,0,0,0.95,19,0,32,32,207,1,5
,,,,,,0.16,0.01,1,0,0,0.568,M,,,,,,0.347724,-0.093168,,lsc,mdzz,22,female,right,mouse,yes,2020-12-12_10h33.47.787,facelocalization,2020.1.2,MacIntel,60,0.33875,-0.08125,1,0,0,1.167,24,0,33,33,286,1,6
,,,,,,-0.15375,0.01625,1,0,0,0.617,F,,,,,,0.137754,0.332586,,lsc,mdzz,22,female,right,mouse,yes,2020-12-12_10h33.47.787,facelocalization,2020.1.2,MacIntel,60,0.1575,0.28875,1,0,0,1.067,13,0,34,34,153,1,4
,,,,,,0.1575,-0.005,1,0,0,0.766,M,,,,,,-0.137754,0.332586,,lsc,mdzz,22,female,right,mouse,yes,2020-12-12_10h33.47.787,facelocalization,2020.1.2,MacIntel,60,-0.11625,0.36125,1,0,0,1.283,3,0,35,35,15,1,1
,,,,,,0.1425,-0.0025,1,0,0,0.534,M,,,,,,-0.332586,-0.137754,,lsc,mdzz,22,female,right,mouse,yes,2020-12-12_10h33.47.787,facelocalization,2020.1.2,MacIntel,60,-0.3025,-0.15,1,0,0,1.066,6,0,36,36,75,1,2
,,,,,,-0.17125,0.00625,1,0,0,0.634,F,,,,,,0.137754,0.332586,,lsc,mdzz,22,female,right,mouse,yes,2020-12-12_10h33.47.787,facelocalization,2020.1.2,MacIntel,60,0.16625,0.32,1,0,0,0.966,3,0,37,37,9,1,1
,,,,,,-0.1475,0.0125,1,0,0,0.615,F,,,,,,0.36,0,,lsc,mdzz,22,female,right,mouse,yes,2020-12-12_10h33.47.787,facelocalization,2020.1.2,MacIntel,60,0.3525,-0.0075,1,0,0,0.917,1,0,38,38,0,1,1
,,,,,,0.17625,-0.02,1,0,0,0.433,M,,,,,,0.254556,-0.254556,,lsc,mdzz,22,female,right,mouse,yes,2020-12-12_10h33.47.787,facelocalization,2020.1.2,MacIntel,60,0.27875,-0.26125,1,0,0,0.968,22,0,39,39,282,1,6
,,,,,,0.15,-0.00375,1,0,0,0.5,M,,,,,,0.356904,0.04698,,lsc,mdzz,22,female,right,mouse,yes,2020-12-12_10h33.47.787,facelocalization,2020.1.2,MacIntel,60,0.3825,0.0225,1,0,0,0.817,10,0,40,40,97,1,3
,,,,,,0.15,-0.0025,1,0,0,0.5,M,,,,,,0.137754,0.332586,,lsc,mdzz,22,female,right,mouse,yes,2020-12-12_10h33.47.787,facelocalization,2020.1.2,MacIntel,60,0.14625,0.3225,1,0,0,1.013,21,0,41,41,249,1,6
,,,,,,-0.16375,0.0125,1,0,0,0.583,F,,,,,,0.285606,0.21915,,lsc,mdzz,22,female,right,mouse,yes,2020-12-12_10h33.47.787,facelocalization,2020.1.2,MacIntel,60,0.31,0.1925,1,0,0,1.017,30,0,42,42,341,1,8
,,,,,,-0.15875,0.005,1,0,0,0.551,F,,,,,,0,-0.36,,lsc,mdzz,22,female,right,mouse,yes,2020-12-12_10h33.47.787,facelocalization,2020.1.2,MacIntel,60,0.0375,-0.35375,1,0,0,1,29,0,43,43,372,1,8
,,,,,,-0.14,0.00125,1,0,0,0.634,F,,,,,,0.18,-0.31176,,lsc,mdzz,22,female,right,mouse,yes,2020-12-12_10h33.47.787,facelocalization,2020.1.2,MacIntel,60,0.1675,-0.31625,1,0,0,0.918,19,0,44,44,232,1,5
,,,,,,-0.1625,0.0175,1,0,0,0.65,F,,,,,,0.137754,-0.332586,,lsc,mdzz,22,female,right,mouse,yes,2020-12-12_10h33.47.787,facelocalization,2020.1.2,MacIntel,60,0.1325,-0.3025,1,0,0,1.084,17,0,45,45,231,1,5
,,,,,,-0.1525,0.02375,1,0,0,0.516,F,,,,,,0.285606,0.21915,,lsc,mdzz,22,female,right,mouse,yes,2020-12-12_10h33.47.787,facelocalization,2020.1.2,MacIntel,60,0.2975,0.19375,1,0,0,1.101,25,0,46,46,293,1,7
,,,,,,-0.155,0.0225,1,0,0,0.418,F,,,,,,-0.18,-0.31176,,lsc,mdzz,22,female,right,mouse,yes,2020-12-12_10h33.47.787,facelocalization,2020.1.2,MacIntel,60,-0.175,-0.32125,1,0,0,1.082,31,0,47,47,368,1,8
,,,,,,0.14,0.005,1,0,0,0.45,M,,,,,,0.21915,-0.285606,,lsc,mdzz,22,female,right,mouse,yes,2020-12-12_10h33.47.787,facelocalization,2020.1.2,MacIntel,60,0.21625,-0.315,1,0,0,0.934,32,0,48,48,377,1,8
,,,,,,-0.13,-0.01,1,0,0,0.615,F,,,,,,-0.31176,0.18,,lsc,mdzz,22,female,right,mouse,yes,2020-12-12_10h33.47.787,facelocalization,2020.1.2,MacIntel,60,-0.2975,0.20875,1,0,0,1.2,13,0,49,49,164,1,4
,,,,,,0.14125,-0.0075,1,0,0,0.667,M,,,,,,-0.285606,0.21915,,lsc,mdzz,22,female,right,mouse,yes,2020-12-12_10h33.47.787,facelocalization,2020.1.2,MacIntel,60,-0.26375,0.2175,1,0,0,0.949,25,0,50,50,307,1,7
,,,,,,-0.12875,0.00125,1,0,0,0.667,F,,,,,,0.332586,-0.137754,,lsc,mdzz,22,female,right,mouse,yes,2020-12-12_10h33.47.787,facelocalization,2020.1.2,MacIntel,60,0.31125,-0.16125,1,0,0,1.001,31,0,51,51,381,1,8
,,,,,,-0.1725,0.01,1,0,0,0.45,F,,,,,,0.04698,-0.356904,,lsc,mdzz,22,female,right,mouse,yes,2020-12-12_10h33.47.787,facelocalization,2020.1.2,MacIntel,60,0.0625,-0.3475,1,0,0,1.234,15,0,52,52,181,1,4
,,,,,,0.1225,0.005,1,0,0,0.433,M,,,,,,0.356904,-0.04698,,lsc,mdzz,22,female,right,mouse,yes,2020-12-12_10h33.47.787,facelocalization,2020.1.2,MacIntel,60,0.35875,-0.0425,1,0,0,1.134,28,0,53,53,335,1,7
,,,,,,-0.1325,0.00875,1,0,0,0.567,F,,,,,,0.356904,0.04698,,lsc,mdzz,22,female,right,mouse,yes,2020-12-12_10h33.47.787,facelocalization,2020.1.2,MacIntel,60,0.38875,0.02875,1,0,0,1.1,3,0,54,54,1,1,1
,,,,,,0.15125,0.015,1,0,0,0.567,M,,,,,,0.285606,0.21915,,lsc,mdzz,22,female,right,mouse,yes,2020-12-12_10h33.47.787,facelocalization,2020.1.2,MacIntel,60,0.29125,0.2125,1,0,0,0.95,21,0,55,55,245,1,6
,,,,,,-0.15125,-0.015,1,0,0,0.583,F,,,,,,-0.21915,-0.285606,,lsc,mdzz,22,female,right,mouse,yes,2020-12-12_10h33.47.787,facelocalization,2020.1.2,MacIntel,60,-0.1975,-0.25,1,0,0,1.05,18,0,56,56,223,1,5
,,,,,,-0.1425,-0.005,1,0,0,0.684,F,,,,,,0.093168,-0.347724,,lsc,mdzz,22,female,right,mouse,yes,2020-12-12_10h33.47.787,facelocalization,2020.1.2,MacIntel,60,0.09125,-0.33875,1,0,0,1.134,19,0,57,57,230,1,5
,,,,,,0.14875,-0.0125,1,0,0,0.534,M,,,,,,-0.285606,-0.21915,,lsc,mdzz,22,female,right,mouse,yes,2020-12-12_10h33.47.787,facelocalization,2020.1.2,MacIntel,60,-0.28625,-0.2325,1,0,0,0.934,32,0,58,58,365,1,8
,,,,,,0.15375,0.01375,1,0,0,0.617,M,,,,,,0.093168,-0.347724,,lsc,mdzz,22,female,right,mouse,yes,2020-12-12_10h33.47.787,facelocalization,2020.1.2,MacIntel,60,0.08625,-0.34625,1,0,0,1.001,16,0,59,59,182,1,4
,,,,,,0.1675,-0.005,1,0,0,0.55,M,,,,,,-0.254556,0.254556,,lsc,mdzz,22,female,right,mouse,yes,2020-12-12_10h33.47.787,facelocalization,2020.1.2,MacIntel,60,-0.2375,0.265,1,0,0,1.018,24,0,60,60,258,1,6
,,,,,,0.14,0.0025,1,0,0,0.682,M,,,,,,-0.356904,-0.04698,,lsc,mdzz,22,female,right,mouse,yes,2020-12-12_10h33.47.787,facelocalization,2020.1.2,MacIntel,60,-0.36625,-0.04,1,0,0,0.9,31,0,61,61,361,1,8
,,,,,,0.18125,0.0075,1,0,0,0.499,M,,,,,,0.356904,0.04698,,lsc,mdzz,22,female,right,mouse,yes,2020-12-12_10h33.47.787,facelocalization,2020.1.2,MacIntel,60,0.33875,0.0325,1,0,0,0.868,30,0,62,62,337,1,8
,,,,,,0.17,-0.00375,1,0,0,0.533,M,,,,,,-0.21915,0.285606,,lsc,mdzz,22,female,right,mouse,yes,2020-12-12_10h33.47.787,facelocalization,2020.1.2,MacIntel,60,-0.2225,0.30375,1,0,0,1.051,26,0,63,63,305,1,7
,,,,,,0.13875,-0.01875,1,0,0,0.6,M,,,,,,-0.18,-0.31176,,lsc,mdzz,22,female,right,mouse,yes,2020-12-12_10h33.47.787,facelocalization,2020.1.2,MacIntel,60,-0.17625,-0.32,1,0,0,1.067,10,0,64,64,128,1,3
,,,,,,-0.14875,0.01,1,0,0,0.633,F,,,,,,-0.332586,-0.137754,,lsc,mdzz,22,female,right,mouse,yes,2020-12-12_10h33.47.787,facelocalization,2020.1.2,MacIntel,60,-0.2275,-0.04875,1,0,0,1.166,17,0,65,65,219,1,5
,,,,,,-0.14375,-0.00125,1,0,0,0.583,F,,,,,,-0.21915,-0.285606,,lsc,mdzz,22,female,right,mouse,yes,2020-12-12_10h33.47.787,facelocalization,2020.1.2,MacIntel,60,-0.23375,-0.33625,1,0,0,1.133,29,0,66,66,367,1,8
,,,,,,0.14875,-0.00875,1,0,0,0.484,M,,,,,,0.31176,-0.18,,lsc,mdzz,22,female,right,mouse,yes,2020-12-12_10h33.47.787,facelocalization,2020.1.2,MacIntel,60,0.3475,-0.1775,1,0,0,0.918,11,0,67,67,140,1,3
,,,,,,0.165,-0.0125,1,0,0,0.617,M,,,,,,0.093168,0.347724,,lsc,mdzz,22,female,right,mouse,yes,2020-12-12_10h33.47.787,facelocalization,2020.1.2,MacIntel,60,0.08375,0.36875,1,0,0,0.967,26,0,68,68,298,1,7
,,,,,,0.155,-0.02125,1,0,0,0.718,M,,,,,,-0.356904,0.04698,,lsc,mdzz,22,female,right,mouse,yes,2020-12-12_10h33.47.787,facelocalization,2020.1.2,MacIntel,60,-0.36875,0.03375,1,0,0,0.999,21,0,69,69,263,1,6
,,,,,,-0.16625,-0.0125,1,0,0,0.649,F,,,,,,-0.347724,-0.093168,,lsc,mdzz,22,female,right,mouse,yes,2020-12-12_10h33.47.787,facelocalization,2020.1.2,MacIntel,60,-0.365,-0.07625,1,0,0,0.966,17,0,70,70,218,1,5
,,,,,,0.13,0.02,1,0,0,0.616,M,,,,,,-0.332586,-0.137754,,lsc,mdzz,22,female,right,mouse,yes,2020-12-12_10h33.47.787,facelocalization,2020.1.2,MacIntel,60,-0.3475,-0.13875,1,0,0,0.866,21,0,71,71,267,1,6
,,,,,,-0.135,0.0025,1,0,0,0.566,F,,,,,,0.21915,-0.285606,,lsc,mdzz,22,female,right,mouse,yes,2020-12-12_10h33.47.787,facelocalization,2020.1.2,MacIntel,60,0.20375,-0.3125,1,0,0,0.934,17,0,72,72,233,1,5
,,,,,,0.1325,0.0025,1,0,0,0.601,M,,,,,,0.347724,-0.093168,,lsc,mdzz,22,female,right,mouse,yes,2020-12-12_10h33.47.787,facelocalization,2020.1.2,MacIntel,60,0.38375,-0.09375,1,0,0,0.916,5,0,73,73,94,1,2
,,,,,,0.15875,-0.005,1,0,0,0.534,M,,,,,,0.093168,-0.347724,,lsc,mdzz,22,female,right,mouse,yes,2020-12-12_10h33.47.787,facelocalization,2020.1.2,MacIntel,60,0.1175,-0.34,1,0,0,0.95,11,0,74,74,134,1,3
,,,,,,0.155,-0.0075,1,0,0,0.55,M,,,,,,0.254556,0.254556,,lsc,mdzz,22,female,right,mouse,yes,2020-12-12_10h33.47.787,facelocalization,2020.1.2,MacIntel,60,0.2775,0.25625,1,0,0,0.933,11,0,75,75,102,1,3
,,,,,,0.1375,-0.00125,1,0,0,0.667,M,,,,,,-0.31176,0.18,,lsc,mdzz,22,female,right,mouse,yes,2020-12-12_10h33.47.787,facelocalization,2020.1.2,MacIntel,60,-0.285,0.255,1,0,0,0.984,8,0,76,76,68,1,2
,,,,,,0.13875,-0.005,1,0,0,0.665,M,,,,,,-0.285606,0.21915,,lsc,mdzz,22,female,right,mouse,yes,2020-12-12_10h33.47.787,facelocalization,2020.1.2,MacIntel,60,-0.26375,0.28375,1,0,0,0.901,7,0,77,77,67,1,2
,,,,,,-0.15875,-0.01625,1,0,0,0.551,F,,,,,,-0.254556,-0.254556,,lsc,mdzz,22,female,right,mouse,yes,2020-12-12_10h33.47.787,facelocalization,2020.1.2,MacIntel,60,-0.24875,-0.25,1,0,0,1.016,20,0,78,78,222,1,5
,,,,,,0.12125,0.00875,1,0,0,0.517,M,,,,,,0.254556,-0.254556,,lsc,mdzz,22,female,right,mouse,yes,2020-12-12_10h33.47.787,facelocalization,2020.1.2,MacIntel,60,0.245,-0.25125,1,0,0,1.016,10,0,79,79,138,1,3
,,,,,,-0.15875,-0.005,1,0,0,0.534,F,,,,,,0.21915,0.285606,,lsc,mdzz,22,female,right,mouse,yes,2020-12-12_10h33.47.787,facelocalization,2020.1.2,MacIntel,60,0.24625,0.29375,1,0,0,0.816,4,0,80,80,7,1,1
,,,,,,0.14625,0,1,0,0,0.6,M,,,,,,0.254556,-0.254556,,lsc,mdzz,22,female,right,mouse,yes,2020-12-12_10h33.47.787,facelocalization,2020.1.2,MacIntel,60,0.27875,-0.2625,1,0,0,0.816,7,0,81,81,90,1,2
,,,,,,0.15375,-0.00625,1,0,0,0.6,M,,,,,,0.254556,0.254556,,lsc,mdzz,22,female,right,mouse,yes,2020-12-12_10h33.47.787,facelocalization,2020.1.2,MacIntel,60,0.29375,0.25625,1,0,0,0.883,14,0,82,82,150,1,4
,,,,,,0.13,0.00875,1,0,0,0.567,M,,,,,,0,-0.36,,lsc,mdzz,22,female,right,mouse,yes,2020-12-12_10h33.47.787,facelocalization,2020.1.2,MacIntel,60,0.02375,-0.3425,1,0,0,1.15,7,0,83,83,84,1,2
,,,,,,0.17,0.00375,1,0,0,0.617,M,,,,,,0,0.36,,lsc,mdzz,22,female,right,mouse,yes,2020-12-12_10h33.47.787,facelocalization,2020.1.2,MacIntel,60,0.0225,0.3425,1,0,0,0.984,26,0,84,84,300,1,7
,,,,,,0.14125,-0.01125,1,0,0,0.634,M,,,,,,0.285606,-0.21915,,lsc,mdzz,22,female,right,mouse,yes,2020-12-12_10h33.47.787,facelocalization,2020.1.2,MacIntel,60,0.30125,-0.25875,1,0,0,0.868,30,0,85,85,379,1,8
,,,,,,-0.155,0.00875,1,0,0,0.466,F,,,,,,0.285606,-0.21915,,lsc,mdzz,22,female,right,mouse,yes,2020-12-12_10h33.47.787,facelocalization,2020.1.2,MacIntel,60,0.31375,-0.25125,1,0,0,1.066,28,0,86,86,331,1,7
,,,,,,0.15125,-0.0075,1,0,0,0.584,M,,,,,,0.18,0.31176,,lsc,mdzz,22,female,right,mouse,yes,2020-12-12_10h33.47.787,facelocalization,2020.1.2,MacIntel,60,0.16375,0.28,1,0,0,1.234,10,0,87,87,104,1,3
,,,,,,-0.14625,-0.015,1,0,0,0.566,F,,,,,,-0.254556,0.254556,,lsc,mdzz,22,female,right,mouse,yes,2020-12-12_10h33.47.787,facelocalization,2020.1.2,MacIntel,60,-0.26,0.27375,1,0,0,1.201,14,0,88,88,162,1,4
,,,,,,-0.1525,-0.00875,1,0,0,0.566,F,,,,,,-0.31176,-0.18,,lsc,mdzz,22,female,right,mouse,yes,2020-12-12_10h33.47.787,facelocalization,2020.1.2,MacIntel,60,-0.30875,-0.1925,1,0,0,1.134,1,0,89,89,28,1,1
,,,,,,0.15,0.00125,1,0,0,0.633,M,,,,,,-0.21915,0.285606,,lsc,mdzz,22,female,right,mouse,yes,2020-12-12_10h33.47.787,facelocalization,2020.1.2,MacIntel,60,-0.18125,0.28,1,0,0,1.218,32,0,90,90,353,1,8
,,,,,,0.15125,-0.01875,1,0,0,0.617,M,,,,,,0.18,0.31176,,lsc,mdzz,22,female,right,mouse,yes,2020-12-12_10h33.47.787,facelocalization,2020.1.2,MacIntel,60,0.2025,0.32375,1,0,0,0.951,7,0,91,91,56,1,2
,,,,,,-0.16625,0.01375,1,0,0,0.467,F,,,,,,-0.04698,-0.356904,,lsc,mdzz,22,female,right,mouse,yes,2020-12-12_10h33.47.787,facelocalization,2020.1.2,MacIntel,60,-0.02125,-0.33625,1,0,0,1.016,3,0,92,92,35,1,1
,,,,,,0.15625,-0.0175,1,0,0,0.533,M,,,,,,-0.332586,-0.137754,,lsc,mdzz,22,female,right,mouse,yes,2020-12-12_10h33.47.787,facelocalization,2020.1.2,MacIntel,60,-0.30875,-0.145,1,0,0,1.384,12,0,93,93,123,1,3
,,,,,,0.1675,0.00375,1,0,0,0.567,M,,,,,,-0.31176,-0.18,,lsc,mdzz,22,female,right,mouse,yes,2020-12-12_10h33.47.787,facelocalization,2020.1.2,MacIntel,60,-0.31375,-0.1725,1,0,0,1.365,21,0,94,94,268,1,6
,,,,,,-0.14875,-0.01,1,0,0,0.5,F,,,,,,-0.356904,0.04698,,lsc,mdzz,22,female,right,mouse,yes,2020-12-12_10h33.47.787,facelocalization,2020.1.2,MacIntel,60,-0.3475,0.0075,1,0,0,1.2,29,0,95,95,359,1,8
,,,,,,0.14,-0.0075,1,0,0,0.683,M,,,,,,-0.254556,-0.254556,,lsc,mdzz,22,female,right,mouse,yes,2020-12-12_10h33.47.787,facelocalization,2020.1.2,MacIntel,60,-0.22125,-0.2325,1,0,0,0.983,11,0,96,96,126,1,3
,,,,,,0.14875,-0.00125,1,0,0,0.583,M,,,,,,-0.137754,0.332586,,lsc,mdzz,22,female,right,mouse,yes,2020-12-12_10h33.47.787,facelocalization,2020.1.2,MacIntel,60,-0.13125,0.35375,1,0,0,0.934,30,0,97,97,351,1,8
,,,,,,-0.135,0.0025,1,0,0,0.651,F,,,,,,-0.093168,-0.347724,,lsc,mdzz,22,female,right,mouse,yes,2020-12-12_10h33.47.787,facelocalization,2020.1.2,MacIntel,60,-0.07625,-0.3475,1,0,0,1.05,9,0,98,98,130,1,3
,,,,,,-0.1125,-0.0075,1,0,0,0.584,F,,,,,,-0.356904,-0.04698,,lsc,mdzz,22,female,right,mouse,yes,2020-12-12_10h33.47.787,facelocalization,2020.1.2,MacIntel,60,-0.35,-0.035,1,0,0,0.933,9,0,99,99,121,1,3
,,,,,,0.1525,-0.00375,1,0,0,0.533,M,,,,,,0.36,0,,lsc,mdzz,22,female,right,mouse,yes,2020-12-12_10h33.47.787,facelocalization,2020.1.2,MacIntel,60,0.35625,0.00375,1,0,0,1.068,26,0,100,100,288,1,7
,,,,,,-0.125,0.00625,1,0,0,0.616,F,,,,,,0.31176,-0.18,,lsc,mdzz,22,female,right,mouse,yes,2020-12-12_10h33.47.787,facelocalization,2020.1.2,MacIntel,60,0.325,-0.1725,1,0,0,1.017,19,0,101,101,236,1,5
,,,,,,0.11125,0.005,1,0,0,0.65,M,,,,,,0.18,-0.31176,,lsc,mdzz,22,female,right,mouse,yes,2020-12-12_10h33.47.787,facelocalization,2020.1.2,MacIntel,60,0.1675,-0.29625,1,0,0,1.184,25,0,102,102,328,1,7
,,,,,,0.1625,0.0075,1,0,0,0.634,M,,,,,,-0.332586,-0.137754,,lsc,mdzz,22,female,right,mouse,yes,2020-12-12_10h33.47.787,facelocalization,2020.1.2,MacIntel,60,-0.3275,-0.125,1,0,0,1.151,27,0,103,103,315,1,7
,,,,,,-0.135,-0.01625,1,0,0,0.517,F,,,,,,-0.254556,-0.254556,,lsc,mdzz,22,female,right,mouse,yes,2020-12-12_10h33.47.787,facelocalization,2020.1.2,MacIntel,60,-0.23,-0.2625,1,0,0,0.95,30,0,104,104,366,1,8
,,,,,,-0.145,-0.01125,1,0,0,0.634,F,,,,,,0.285606,-0.21915,,lsc,mdzz,22,female,right,mouse,yes,2020-12-12_10h33.47.787,facelocalization,2020.1.2,MacIntel,60,0.31875,-0.23875,1,0,0,1.117,22,0,105,105,283,1,6
,,,,,,0.17,-0.01625,1,0,0,0.55,M,,,,,,-0.093168,0.347724,,lsc,mdzz,22,female,right,mouse,yes,2020-12-12_10h33.47.787,facelocalization,2020.1.2,MacIntel,60,-0.035,0.355,1,0,0,1.151,20,0,106,106,206,1,5
,,,,,,-0.14875,-0.01875,1,0,0,0.884,F,,,,,,-0.21915,0.285606,,lsc,mdzz,22,female,right,mouse,yes,2020-12-12_10h33.47.787,facelocalization,2020.1.2,MacIntel,60,-0.2325,0.315,1,0,0,1.117,1,0,107,107,17,1,1
,,,,,,-0.15625,-0.0025,1,0,0,0.567,F,,,,,,-0.347724,0.093168,,lsc,mdzz,22,female,right,mouse,yes,2020-12-12_10h33.47.787,facelocalization,2020.1.2,MacIntel,60,-0.3725,0.09625,1,0,0,1.167,14,0,108,108,166,1,4
,,,,,,0.155,-0.0075,1,0,0,0.901,M,,,,,,-0.31176,-0.18,,lsc,mdzz,22,female,right,mouse,yes,2020-12-12_10h33.47.787,facelocalization,2020.1.2,MacIntel,60,-0.32,-0.1675,1,0,0,0.933,6,0,109,109,76,1,2
,,,,,,0.12625,-0.0225,1,0,0,0.518,M,,,,,,0.347724,0.093168,,lsc,mdzz,22,female,right,mouse,yes,2020-12-12_10h33.47.787,facelocalization,2020.1.2,MacIntel,60,0.36375,0.07875,1,0,0,1.165,10,0,110,110,98,1,3
,,,,,,0.1575,-0.015,1,0,0,0.516,M,,,,,,0.254556,-0.254556,,lsc,mdzz,22,female,right,mouse,yes,2020-12-12_10h33.47.787,facelocalization,2020.1.2,MacIntel,60,0.3025,-0.26125,1,0,0,1.201,17,0,111,111,234,1,5
,,,,,,0.15375,0.00125,1,0,0,0.567,M,,,,,,0.332586,0.137754,,lsc,mdzz,22,female,right,mouse,yes,2020-12-12_10h33.47.787,facelocalization,2020.1.2,MacIntel,60,0.37375,0.1125,1,0,0,1,6,0,112,112,51,1,2
,,,,,,-0.1525,-0.01375,1,0,0,0.55,F,,,,,,-0.137754,-0.332586,,lsc,mdzz,22,female,right,mouse,yes,2020-12-12_10h33.47.787,facelocalization,2020.1.2,MacIntel,60,-0.15375,-0.305,1,0,0,1.084,4,0,113,113,33,1,1
,,,,,,0.16,0.01,1,0,0,0.733,M,,,,,,-0.254556,-0.254556,,lsc,mdzz,22,female,right,mouse,yes,2020-12-12_10h33.47.787,facelocalization,2020.1.2,MacIntel,60,-0.26,-0.23875,1,0,0,1.2,16,0,114,114,174,1,4
,,,,,,-0.13125,-0.00375,1,0,0,0.7,F,,,,,,0,-0.36,,lsc,mdzz,22,female,right,mouse,yes,2020-12-12_10h33.47.787,facelocalization,2020.1.2,MacIntel,60,-0.0075,-0.3575,1,0,0,1.184,4,0,115,115,36,1,1
,,,,,,0.145,0.00625,1,0,0,0.65,M,,,,,,-0.356904,-0.04698,,lsc,mdzz,22,female,right,mouse,yes,2020-12-12_10h33.47.787,facelocalization,2020.1.2,MacIntel,60,-0.36625,-0.04,1,0,0,1.167,19,0,116,116,217,1,5
,,,,,,0.1625,-0.00875,1,0,0,0.534,M,,,,,,0.347724,0.093168,,lsc,mdzz,22,female,right,mouse,yes,2020-12-12_10h33.47.787,facelocalization,2020.1.2,MacIntel,60,0.37125,0.08125,1,0,0,1,5,0,117,117,50,1,2
,,,,,,-0.1425,-0.0025,1,0,0,0.516,F,,,,,,0,0.36,,lsc,mdzz,22,female,right,mouse,yes,2020-12-12_10h33.47.787,facelocalization,2020.1.2,MacIntel,60,0.02375,0.3375,1,0,0,1.067,30,0,118,118,348,1,8
,,,,,,-0.18125,-0.005,1,0,0,0.585,F,,,,,,0.332586,0.137754,,lsc,mdzz,22,female,right,mouse,yes,2020-12-12_10h33.47.787,facelocalization,2020.1.2,MacIntel,60,0.38375,0.14,1,0,0,1.383,17,0,119,119,195,1,5
,,,,,,-0.13875,0.01125,1,0,0,0.666,F,,,,,,0.18,0.31176,,lsc,mdzz,22,female,right,mouse,yes,2020-12-12_10h33.47.787,facelocalization,2020.1.2,MacIntel,60,0.19875,0.29375,1,0,0,1.184,20,0,120,120,200,1,5
,,,,,,0.155,-0.00375,1,0,0,0.634,M,,,,,,-0.332586,0.137754,,lsc,mdzz,22,female,right,mouse,yes,2020-12-12_10h33.47.787,facelocalization,2020.1.2,MacIntel,60,-0.35875,0.12375,1,0,0,1.349,26,0,121,121,309,1,7
,,,,,,0.13375,0.00625,1,0,0,0.617,M,,,,,,-0.18,-0.31176,,lsc,mdzz,22,female,right,mouse,yes,2020-12-12_10h33.47.787,facelocalization,2020.1.2,MacIntel,60,-0.16375,-0.3075,1,0,0,1.251,16,0,122,122,176,1,4
,,,,,,-0.155,0.01375,1,0,0,0.5,F,,,,,,-0.31176,-0.18,,lsc,mdzz,22,female,right,mouse,yes,2020-12-12_10h33.47.787,facelocalization,2020.1.2,MacIntel,60,-0.33375,-0.1625,1,0,0,1.084,32,0,123,123,364,1,8
,,,,,,0.15,0.00625,1,0,0,0.517,M,,,,,,0.36,0,,lsc,mdzz,22,female,right,mouse,yes,2020-12-12_10h33.47.787,facelocalization,2020.1.2,MacIntel,60,0.36125,0.00375,1,0,0,1.167,24,0,124,124,240,1,6
,,,,,,-0.14875,0.01,1,0,0,0.684,F,,,,,,0.285606,0.21915,,lsc,mdzz,22,female,right,mouse,yes,2020-12-12_10h33.47.787,facelocalization,2020.1.2,MacIntel,60,0.33,0.23125,1,0,0,0.935,3,0,125,125,5,1,1
,,,,,,0.15375,-0.025,1,0,0,0.517,M,,,,,,-0.21915,0.285606,,lsc,mdzz,22,female,right,mouse,yes,2020-12-12_10h33.47.787,facelocalization,2020.1.2,MacIntel,60,-0.16625,0.26875,1,0,0,1.083,11,0,126,126,113,1,3
,,,,,,-0.15375,0.01125,1,0,0,0.767,F,,,,,,0.254556,-0.254556,,lsc,mdzz,22,female,right,mouse,yes,2020-12-12_10h33.47.787,facelocalization,2020.1.2,MacIntel,60,0.2875,-0.27625,1,0,0,0.884,29,0,127,127,378,1,8
,,,,,,0.13625,0.02375,1,0,0,0.699,M,,,,,,-0.285606,-0.21915,,lsc,mdzz,22,female,right,mouse,yes,2020-12-12_10h33.47.787,facelocalization,2020.1.2,MacIntel,60,-0.34375,-0.21125,1,0,0,1.05,16,0,128,128,173,1,4
,,,,,,-0.17,0.00875,1,0,0,0.516,F,,,,,,-0.356904,0.04698,,lsc,mdzz,22,female,right,mouse,yes,2020-12-12_10h33.47.787,facelocalization,2020.1.2,MacIntel,60,-0.36,0.06375,1,0,0,1.167,17,0,129,129,215,1,5
,,,,,,0.14875,0.02125,1,0,0,0.467,M,,,,,,0.347724,-0.093168,,lsc,mdzz,22,female,right,mouse,yes,2020-12-12_10h33.47.787,facelocalization,2020.1.2,MacIntel,60,0.35625,-0.07625,1,0,0,1.017,28,0,130,130,334,1,7
,,,,,,-0.1275,0.01,1,0,0,0.584,F,,,,,,0.093168,-0.347724,,lsc,mdzz,22,female,right,mouse,yes,2020-12-12_10h33.47.787,facelocalization,2020.1.2,MacIntel,60,0.10375,-0.32375,1,0,0,1.384,1,0,131,131,38,1,1
,,,,,,-0.1725,0.02,1,0,0,0.566,F,,,,,,0.347724,-0.093168,,lsc,mdzz,22,female,right,mouse,yes,2020-12-12_10h33.47.787,facelocalization,2020.1.2,MacIntel,60,0.38,-0.07125,1,0,0,1.051,3,0,132,132,46,1,1
,,,,,,0.15125,-0.00625,1,0,0,0.667,M,,,,,,0.356904,0.04698,,lsc,mdzz,22,female,right,mouse,yes,2020-12-12_10h33.47.787,facelocalization,2020.1.2,MacIntel,60,0.4175,0.0375,1,0,0,0.867,6,0,133,133,49,1,2
,,,,,,-0.13375,0.01375,1,0,0,0.65,F,,,,,,-0.21915,0.285606,,lsc,mdzz,22,female,right,mouse,yes,2020-12-12_10h33.47.787,facelocalization,2020.1.2,MacIntel,60,-0.2025,0.32125,1,0,0,1.117,14,0,134,134,161,1,4
,,,,,,-0.15625,0.01125,1,0,0,0.632,F,,,,,,0.18,-0.31176,,lsc,mdzz,22,female,right,mouse,yes,2020-12-12_10h33.47.787,facelocalization,2020.1.2,MacIntel,60,0.21625,-0.315,1,0,0,0.933,3,0,135,135,40,1,1
,,,,,,0.16875,-0.0025,1,0,0,0.684,M,,,,,,-0.18,0.31176,,lsc,mdzz,22,female,right,mouse,yes,2020-12-12_10h33.47.787,facelocalization,2020.1.2,MacIntel,60,-0.1725,0.30875,1,0,0,1.266,27,0,136,136,304,1,7
,,,,,,-0.1575,0.00375,1,0,0,0.651,F,,,,,,0.093168,-0.347724,,lsc,mdzz,22,female,right,mouse,yes,2020-12-12_10h33.47.787,facelocalization,2020.1.2,MacIntel,60,0.0675,-0.355,1,0,0,1.116,25,0,137,137,326,1,7
,,,,,,0.15375,0.00125,1,0,0,0.6,M,,,,,,-0.285606,-0.21915,,lsc,mdzz,22,female,right,mouse,yes,2020-12-12_10h33.47.787,facelocalization,2020.1.2,MacIntel,60,-0.31,-0.185,1,0,0,1.15,27,0,138,138,317,1,7
,,,,,,-0.1575,0.00875,1,0,0,0.617,F,,,,,,-0.137754,0.332586,,lsc,mdzz,22,female,right,mouse,yes,2020-12-12_10h33.47.787,facelocalization,2020.1.2,MacIntel,60,-0.11875,0.31,1,0,0,1.267,9,0,139,139,111,1,3
,,,,,,-0.13,0.00375,1,0,0,0.65,F,,,,,,-0.18,-0.31176,,lsc,mdzz,22,female,right,mouse,yes,2020-12-12_10h33.47.787,facelocalization,2020.1.2,MacIntel,60,-0.175,-0.3025,1,0,0,1.117,17,0,140,140,224,1,5
,,,,,,0.15375,-0.015,1,0,0,0.699,M,,,,,,0,0.36,,lsc,mdzz,22,female,right,mouse,yes,2020-12-12_10h33.47.787,facelocalization,2020.1.2,MacIntel,60,0.03125,0.36375,1,0,0,0.867,5,0,141,141,60,1,2
,,,,,,0.14875,-0.0075,1,0,0,0.601,M,,,,,,-0.21915,-0.285606,,lsc,mdzz,22,female,right,mouse,yes,2020-12-12_10h33.47.787,facelocalization,2020.1.2,MacIntel,60,-0.19875,-0.28375,1,0,0,1.032,6,0,142,142,79,1,2
,,,,,,0.1475,0.0125,1,0,0,0.833,M,,,,,,0.04698,0.356904,,lsc,mdzz,22,female,right,mouse,yes,2020-12-12_10h33.47.787,facelocalization,2020.1.2,MacIntel,60,0.0425,0.3375,1,0,0,1.117,18,0,143,143,203,1,5
,,,,,,0.14875,-0.0125,1,0,0,0.634,M,,,,,,-0.18,0.31176,,lsc,mdzz,22,female,right,mouse,yes,2020-12-12_10h33.47.787,facelocalization,2020.1.2,MacIntel,60,-0.17,0.3625,1,0,0,1.233,8,0,144,144,64,1,2
,,,,,,-0.125,0,1,0,0,0.699,F,,,,,,0.254556,-0.254556,,lsc,mdzz,22,female,right,mouse,yes,2020-12-12_10h33.47.787,facelocalization,2020.1.2,MacIntel,60,0.25875,-0.275,1,0,0,1.184,4,0,145,145,42,1,1
,,,,,,0.1375,-0.0075,1,0,0,0.65,M,,,,,,-0.31176,0.18,,lsc,mdzz,22,female,right,mouse,yes,2020-12-12_10h33.47.787,facelocalization,2020.1.2,MacIntel,60,-0.3275,0.18625,1,0,0,1.067,32,0,146,146,356,1,8
,,,,,,-0.15625,0.00375,1,0,0,0.685,F,,,,,,-0.137754,-0.332586,,lsc,mdzz,22,female,right,mouse,yes,2020-12-12_10h33.47.787,facelocalization,2020.1.2,MacIntel,60,-0.10125,-0.30625,1,0,0,1.234,30,0,147,147,369,1,8
,,,,,,0.1575,-0.00125,1,0,0,0.616,M,,,,,,-0.285606,0.21915,,lsc,mdzz,22,female,right,mouse,yes,2020-12-12_10h33.47.787,facelocalization,2020.1.2,MacIntel,60,-0.32625,0.24875,1,0,0,1.083,1,0,148,148,19,1,1
,,,,,,-0.15,0.01875,1,0,0,0.634,F,,,,,,0.137754,-0.332586,,lsc,mdzz,22,female,right,mouse,yes,2020-12-12_10h33.47.787,facelocalization,2020.1.2,MacIntel,60,0.1475,-0.3375,1,0,0,1,30,0,149,149,375,1,8
,,,,,,0.13625,0.01125,1,0,0,0.667,M,,,,,,-0.254556,0.254556,,lsc,mdzz,22,female,right,mouse,yes,2020-12-12_10h33.47.787,facelocalization,2020.1.2,MacIntel,60,-0.24125,0.285,1,0,0,1.116,5,0,150,150,66,1,2
,,,,,,0.13625,-0.01125,1,0,0,0.517,M,,,,,,0.31176,0.18,,lsc,mdzz,22,female,right,mouse,yes,2020-12-12_10h33.47.787,facelocalization,2020.1.2,MacIntel,60,0.305,0.16125,1,0,0,1.017,22,0,151,151,244,1,6
,,,,,,0.14375,0.00125,1,0,0,0.566,M,,,,,,0.347724,0.093168,,lsc,mdzz,22,female,right,mouse,yes,2020-12-12_10h33.47.787,facelocalization,2020.1.2,MacIntel,60,0.35875,0.075,1,0,0,0.933,28,0,152,152,290,1,7
,,,,,,0.1575,-0.005,1,0,0,0.584,M,,,,,,0.254556,-0.254556,,lsc,mdzz,22,female,right,mouse,yes,2020-12-12_10h33.47.787,facelocalization,2020.1.2,MacIntel,60,0.25125,-0.2525,1,0,0,1.033,26,0,153,153,330,1,7
,,,,,,-0.1525,0.02375,1,0,0,0.5,F,,,,,,-0.285606,-0.21915,,lsc,mdzz,22,female,right,mouse,yes,2020-12-12_10h33.47.787,facelocalization,2020.1.2,MacIntel,60,-0.23125,-0.19,1,0,0,1.067,17,0,154,154,221,1,5
,,,,,,0.15625,-0.0125,1,0,0,0.566,M,,,,,,-0.347724,-0.093168,,lsc,mdzz,22,female,right,mouse,yes,2020-12-12_10h33.47.787,facelocalization,2020.1.2,MacIntel,60,-0.39125,-0.0825,1,0,0,1.083,8,0,155,155,74,1,2
,,,,,,-0.16625,-0.0025,1,0,0,0.599,F,,,,,,0.18,0.31176,,lsc,mdzz,22,female,right,mouse,yes,2020-12-12_10h33.47.787,facelocalization,2020.1.2,MacIntel,60,0.22,0.3275,1,0,0,1.183,3,0,156,156,8,1,1
,,,,,,0.175,-0.01125,1,0,0,0.617,M,,,,,,-0.254556,0.254556,,lsc,mdzz,22,female,right,mouse,yes,2020-12-12_10h33.47.787,facelocalization,2020.1.2,MacIntel,60,-0.2375,0.26375,1,0,0,1.233,18,0,157,157,210,1,5
,,,,,,0.1275,-0.00625,1,0,0,0.583,M,,,,,,0.332586,0.137754,,lsc,mdzz,22,female,right,mouse,yes,2020-12-12_10h33.47.787,facelocalization,2020.1.2,MacIntel,60,0.37375,0.12875,1,0,0,1.067,11,0,158,158,99,1,3
,,,,,,-0.12125,-0.0075,1,0,0,0.567,F,,,,,,0.31176,-0.18,,lsc,mdzz,22,female,right,mouse,yes,2020-12-12_10h33.47.787,facelocalization,2020.1.2,MacIntel,60,0.33125,-0.19625,1,0,0,1.133,23,0,159,159,284,1,6
,,,,,,0.13625,-0.00125,1,0,0,0.567,M,,,,,,0.31176,0.18,,lsc,mdzz,22,female,right,mouse,yes,2020-12-12_10h33.47.787,facelocalization,2020.1.2,MacIntel,60,0.35625,0.15375,1,0,0,0.984,15,0,160,160,148,1,4
,,,,,,0.15375,-0.01,1,0,0,0.634,M,,,,,,-0.21915,-0.285606,,lsc,mdzz,22,female,right,mouse,yes,2020-12-12_10h33.47.787,facelocalization,2020.1.2,MacIntel,60,-0.26375,-0.325,1,0,0,1.2,24,0,161,161,271,1,6
,,,,,,-0.1325,0.00375,1,0,0,0.583,F,,,,,,-0.356904,-0.04698,,lsc,mdzz,22,female,right,mouse,yes,2020-12-12_10h33.47.787,facelocalization,2020.1.2,MacIntel,60,-0.33125,-0.01875,1,0,0,0.95,14,0,162,162,169,1,4
,,,,,,0.15625,-0.01125,1,0,0,0.632,M,,,,,,0.21915,0.285606,,lsc,mdzz,22,female,right,mouse,yes,2020-12-12_10h33.47.787,facelocalization,2020.1.2,MacIntel,60,0.24,0.26125,1,0,0,1.167,32,0,163,163,343,1,8
,,,,,,0.1625,0.00125,1,0,0,0.65,M,,,,,,0,-0.36,,lsc,mdzz,22,female,right,mouse,yes,2020-12-12_10h33.47.787,facelocalization,2020.1.2,MacIntel,60,0.00875,-0.36625,1,0,0,1.2,22,0,164,164,276,1,6
,,,,,,0.14375,-0.0125,1,0,0,0.533,M,,,,,,0.356904,-0.04698,,lsc,mdzz,22,female,right,mouse,yes,2020-12-12_10h33.47.787,facelocalization,2020.1.2,MacIntel,60,0.38,-0.0525,1,0,0,0.9,21,0,165,165,287,1,6
,,,,,,0.1675,0.00375,1,0,0,0.631,M,,,,,,-0.36,0,,lsc,mdzz,22,female,right,mouse,yes,2020-12-12_10h33.47.787,facelocalization,2020.1.2,MacIntel,60,-0.335,0.01125,1,0,0,1.167,11,0,166,166,120,1,3
,,,,,,0.165,0.005,1,0,0,0.601,M,,,,,,-0.285606,0.21915,,lsc,mdzz,22,female,right,mouse,yes,2020-12-12_10h33.47.787,facelocalization,2020.1.2,MacIntel,60,-0.295,0.22875,1,0,0,1.166,16,0,167,167,163,1,4
,,,,,,0.135,-0.00875,1,0,0,0.55,M,,,,,,0.21915,0.285606,,lsc,mdzz,22,female,right,mouse,yes,2020-12-12_10h33.47.787,facelocalization,2020.1.2,MacIntel,60,0.2325,0.295,1,0,0,0.8,24,0,168,168,247,1,6
,,,,,,-0.1475,-0.02125,1,0,0,0.599,F,,,,,,-0.093168,-0.347724,,lsc,mdzz,22,female,right,mouse,yes,2020-12-12_10h33.47.787,facelocalization,2020.1.2,MacIntel,60,-0.06875,-0.35375,1,0,0,1.067,17,0,169,169,226,1,5
,,,,,,0.15625,0.00625,1,0,0,0.684,M,,,,,,0.093168,0.347724,,lsc,mdzz,22,female,right,mouse,yes,2020-12-12_10h33.47.787,facelocalization,2020.1.2,MacIntel,60,0.12,0.30125,1,0,0,1,2,0,170,170,10,1,1
,,,,,,-0.14125,-0.0175,1,0,0,0.584,F,,,,,,-0.093168,-0.347724,,lsc,mdzz,22,female,right,mouse,yes,2020-12-12_10h33.47.787,facelocalization,2020.1.2,MacIntel,60,-0.06875,-0.3275,1,0,0,1.117,29,0,171,171,370,1,8
,,,,,,-0.15375,0.005,1,0,0,0.617,F,,,,,,-0.04698,-0.356904,,lsc,mdzz,22,female,right,mouse,yes,2020-12-12_10h33.47.787,facelocalization,2020.1.2,MacIntel,60,-0.02375,-0.35,1,0,0,1.501,14,0,172,172,179,1,4
,,,,,,-0.14875,0.01125,1,0,0,0.733,F,,,,,,0.332586,-0.137754,,lsc,mdzz,22,female,right,mouse,yes,2020-12-12_10h33.47.787,facelocalization,2020.1.2,MacIntel,60,0.3475,-0.14,1,0,0,1.152,20,0,173,173,237,1,5
,,,,,,0.1525,-0.015,1,0,0,0.567,M,,,,,,0.347724,-0.093168,,lsc,mdzz,22,female,right,mouse,yes,2020-12-12_10h33.47.787,facelocalization,2020.1.2,MacIntel,60,0.3325,-0.09625,1,0,0,1.084,18,0,174,174,238,1,5
,,,,,,-0.13625,-0.00125,1,0,0,0.618,F,,,,,,-0.093168,-0.347724,,lsc,mdzz,22,female,right,mouse,yes,2020-12-12_10h33.47.787,facelocalization,2020.1.2,MacIntel,60,-0.06,-0.35875,1,0,0,1.344,26,0,175,175,322,1,7
,,,,,,0.16875,-0.00125,1,0,0,0.8,M,,,,,,0.356904,0.04698,,lsc,mdzz,22,female,right,mouse,yes,2020-12-12_10h33.47.787,facelocalization,2020.1.2,MacIntel,60,0.385,0.00875,1,0,0,0.985,25,0,176,176,289,1,7
,,,,,,0.13625,0.0025,1,0,0,0.682,M,,,,,,-0.356904,-0.04698,,lsc,mdzz,22,female,right,mouse,yes,2020-12-12_10h33.47.787,facelocalization,2020.1.2,MacIntel,60,-0.30875,-0.0225,1,0,0,1.1,22,0,177,177,265,1,6
,,,,,,0.1425,-0.00375,1,0,0,0.567,M,,,,,,0.137754,-0.332586,,lsc,mdzz,22,female,right,mouse,yes,2020-12-12_10h33.47.787,facelocalization,2020.1.2,MacIntel,60,0.13125,-0.33375,1,0,0,1.167,10,0,178,178,135,1,3
,,,,,,0.16375,-0.0025,1,0,0,0.617,M,,,,,,0.347724,-0.093168,,lsc,mdzz,22,female,right,mouse,yes,2020-12-12_10h33.47.787,facelocalization,2020.1.2,MacIntel,60,0.3775,-0.08625,1,0,0,1.085,16,0,179,179,190,1,4
,,,,,,0.17125,0.00125,1,0,0,0.6,M,,,,,,-0.137754,0.332586,,lsc,mdzz,22,female,right,mouse,yes,2020-12-12_10h33.47.787,facelocalization,2020.1.2,MacIntel,60,-0.1125,0.34125,1,0,0,1.167,24,0,180,180,255,1,6
,,,,,,0.1425,0.00875,1,0,0,0.617,M,,,,,,-0.347724,-0.093168,,lsc,mdzz,22,female,right,mouse,yes,2020-12-12_10h33.47.787,facelocalization,2020.1.2,MacIntel,60,-0.32125,-0.075,1,0,0,1.183,2,0,181,181,26,1,1
,,,,,,0.16,-0.01,1,0,0,0.616,M,,,,,,-0.356904,0.04698,,lsc,mdzz,22,female,right,mouse,yes,2020-12-12_10h33.47.787,facelocalization,2020.1.2,MacIntel,60,-0.32875,0.05875,1,0,0,1.384,6,0,182,182,71,1,2
,,,,,,0.13625,0.00125,1,0,0,0.617,M,,,,,,0.31176,0.18,,lsc,mdzz,22,female,right,mouse,yes,2020-12-12_10h33.47.787,facelocalization,2020.1.2,MacIntel,60,0.3675,0.175,1,0,0,1.117,7,0,183,183,52,1,2
,,,,,,-0.14125,0.00125,1,0,0,0.484,F,,,,,,-0.254556,0.254556,,lsc,mdzz,22,female,right,mouse,yes,2020-12-12_10h33.47.787,facelocalization,2020.1.2,MacIntel,60,-0.2325,0.26625,1,0,0,1.2,29,0,184,184,354,1,8
,,,,,,-0.15125,0.0025,1,0,0,0.533,F,,,,,,0.093168,-0.347724,,lsc,mdzz,22,female,right,mouse,yes,2020-12-12_10h33.47.787,facelocalization,2020.1.2,MacIntel,60,0.0975,-0.3475,1,0,0,1.033,29,0,185,185,374,1,8
,,,,,,-0.1625,-0.015,1,0,0,0.6,F,,,,,,0.04698,0.356904,,lsc,mdzz,22,female,right,mouse,yes,2020-12-12_10h33.47.787,facelocalization,2020.1.2,MacIntel,60,0.07125,0.33125,1,0,0,1.183,13,0,186,186,155,1,4
,,,,,,-0.14,0.0125,1,0,0,0.717,F,,,,,,0.18,0.31176,,lsc,mdzz,22,female,right,mouse,yes,2020-12-12_10h33.47.787,facelocalization,2020.1.2,MacIntel,60,0.1775,0.29375,1,0,0,1.067,14,0,187,187,152,1,4
,,,,,,-0.1525,-0.01,1,0,0,0.667,F,,,,,,0.093168,0.347724,,lsc,mdzz,22,female,right,mouse,yes,2020-12-12_10h33.47.787,facelocalization,2020.1.2,MacIntel,60,0.1275,0.325,1,0,0,1.033,13,0,188,188,154,1,4
,,,,,,0.14625,-0.00875,1,0,0,0.634,M,,,,,,0.137754,-0.332586,,lsc,mdzz,22,female,right,mouse,yes,2020-12-12_10h33.47.787,facelocalization,2020.1.2,MacIntel,60,0.1275,-0.36,1,0,0,0.9,27,0,189,189,327,1,7
,,,,,,0.13,0.00375,1,0,0,0.666,M,,,,,,-0.347724,0.093168,,lsc,mdzz,22,female,right,mouse,yes,2020-12-12_10h33.47.787,facelocalization,2020.1.2,MacIntel,60,-0.3475,0.105,1,0,0,1.017,5,0,190,190,70,1,2
,,,,,,0.15875,-0.015,1,0,0,0.6,M,,,,,,0.21915,-0.285606,,lsc,mdzz,22,female,right,mouse,yes,2020-12-12_10h33.47.787,facelocalization,2020.1.2,MacIntel,60,0.23875,-0.3175,1,0,0,0.934,9,0,191,191,137,1,3
,,,,,,0.1475,0.00375,1,0,0,0.683,M,,,,,,0.285606,0.21915,,lsc,mdzz,22,female,right,mouse,yes,2020-12-12_10h33.47.787,facelocalization,2020.1.2,MacIntel,60,0.31,0.21875,1,0,0,1.1,16,0,192,192,149,1,4
,,,,,,-0.155,-0.00625,1,0,0,0.634,F,,,,,,-0.347724,-0.093168,,lsc,mdzz,22,female,right,mouse,yes,2020-12-12_10h33.47.787,facelocalization,2020.1.2,MacIntel,60,-0.32625,-0.08,1,0,0,0.965,16,0,193,193,170,1,4
,,,,,,-0.13625,0,1,0,0,0.583,F,,,,,,0.347724,0.093168,,lsc,mdzz,22,female,right,mouse,yes,2020-12-12_10h33.47.787,facelocalization,2020.1.2,MacIntel,60,0.39375,0.08375,1,0,0,1.001,1,0,194,194,2,1,1
,,,,,,0.14,-0.00125,1,0,0,0.617,M,,,,,,-0.137754,-0.332586,,lsc,mdzz,22,female,right,mouse,yes,2020-12-12_10h33.47.787,facelocalization,2020.1.2,MacIntel,60,-0.135,-0.34125,1,0,0,1.069,15,0,195,195,177,1,4
,,,,,,-0.14625,0.03,1,0,0,0.95,F,,,,,,-0.04698,-0.356904,,lsc,mdzz,22,female,right,mouse,yes,2020-12-12_10h33.47.787,facelocalization,2020.1.2,MacIntel,60,-0.0125,-0.3125,1,0,0,1.15,20,0,196,196,227,1,5
,,,,,,0.13625,-0.01375,1,0,0,0.635,M,,,,,,0.31176,0.18,,lsc,mdzz,22,female,right,mouse,yes,2020-12-12_10h33.47.787,facelocalization,2020.1.2,MacIntel,60,0.36375,0.1625,1,0,0,0.866,2,0,197,197,4,1,1
,,,,,,-0.14,0.00125,1,0,0,0.633,F,,,,,,0.137754,-0.332586,,lsc,mdzz,22,female,right,mouse,yes,2020-12-12_10h33.47.787,facelocalization,2020.1.2,MacIntel,60,0.14625,-0.34375,1,0,0,0.934,14,0,198,198,183,1,4
,,,,,,0.155,-0.0175,1,0,0,0.6,M,,,,,,-0.347724,0.093168,,lsc,mdzz,22,female,right,mouse,yes,2020-12-12_10h33.47.787,facelocalization,2020.1.2,MacIntel,60,-0.36125,0.11125,1,0,0,1.067,18,0,199,199,214,1,5
,,,,,,-0.14875,-0.00375,1,0,0,0.701,F,,,,,,0,0.36,,lsc,mdzz,22,female,right,mouse,yes,2020-12-12_10h33.47.787,facelocalization,2020.1.2,MacIntel,60,0.03875,0.32875,1,0,0,0.9,17,0,200,200,204,1,5
,,,,,,0.155,-0.00375,1,0,0,0.566,M,,,,,,0.356904,-0.04698,,lsc,mdzz,22,female,right,mouse,yes,2020-12-12_10h33.47.787,facelocalization,2020.1.2,MacIntel,60,0.35,-0.05125,1,0,0,0.9,32,0,201,201,383,1,8
,,,,,,0.1625,-0.00125,1,0,0,0.649,M,,,,,,0.332586,0.137754,,lsc,mdzz,22,female,right,mouse,yes,2020-12-12_10h33.47.787,facelocalization,2020.1.2,MacIntel,60,0.36875,0.1225,1,0,0,0.85,2,0,202,202,3,1,1
,,,,,,-0.14125,-0.0075,1,0,0,0.668,F,,,,,,-0.093168,0.347724,,lsc,mdzz,22,female,right,mouse,yes,2020-12-12_10h33.47.787,facelocalization,2020.1.2,MacIntel,60,-0.07625,0.34125,1,0,0,1.15,14,0,203,203,158,1,4
,,,,,,0.1575,-0.0025,1,0,0,0.732,M,,,,,,-0.254556,0.254556,,lsc,mdzz,22,female,right,mouse,yes,2020-12-12_10h33.47.787,facelocalization,2020.1.2,MacIntel,60,-0.2725,0.27625,1,0,0,0.95,27,0,204,204,306,1,7
,,,,,,0.13875,-0.0125,1,0,0,0.583,M,,,,,,-0.04698,0.356904,,lsc,mdzz,22,female,right,mouse,yes,2020-12-12_10h33.47.787,facelocalization,2020.1.2,MacIntel,60,-0.02125,0.36,1,0,0,0.833,32,0,205,205,349,1,8
,,,,,,0.14875,-0.00625,1,0,0,0.868,M,,,,,,0.137754,0.332586,,lsc,mdzz,22,female,right,mouse,yes,2020-12-12_10h33.47.787,facelocalization,2020.1.2,MacIntel,60,0.15125,0.3325,1,0,0,1.216,27,0,206,206,297,1,7
,,,,,,-0.15375,-0.01,1,0,0,0.65,F,,,,,,-0.31176,-0.18,,lsc,mdzz,22,female,right,mouse,yes,2020-12-12_10h33.47.787,facelocalization,2020.1.2,MacIntel,60,-0.285,-0.16375,1,0,0,1.051,26,0,207,207,316,1,7
,,,,,,-0.13,-0.00375,1,0,0,0.534,F,,,,,,-0.093168,-0.347724,,lsc,mdzz,22,female,right,mouse,yes,2020-12-12_10h33.47.787,facelocalization,2020.1.2,MacIntel,60,-0.0825,-0.3525,1,0,0,0.9,23,0,208,208,274,1,6
,,,,,,0.15375,-0.00375,1,0,0,0.65,M,,,,,,-0.347724,-0.093168,,lsc,mdzz,22,female,right,mouse,yes,2020-12-12_10h33.47.787,facelocalization,2020.1.2,MacIntel,60,-0.32375,-0.08625,1,0,0,0.849,26,0,209,209,314,1,7
,,,,,,-0.1525,-0.01125,1,0,0,0.816,F,,,,,,0.04698,0.356904,,lsc,mdzz,22,female,right,mouse,yes,2020-12-12_10h33.47.787,facelocalization,2020.1.2,MacIntel,60,0.06125,0.31875,1,0,0,0.934,28,0,210,210,299,1,7
,,,,,,0.13625,-0.0025,1,0,0,0.699,M,,,,,,-0.04698,0.356904,,lsc,mdzz,22,female,right,mouse,yes,2020-12-12_10h33.47.787,facelocalization,2020.1.2,MacIntel,60,-0.02875,0.35125,1,0,0,1.049,2,0,211,211,13,1,1
,,,,,,0.1375,-0.00375,1,0,0,0.617,M,,,,,,0.137754,0.332586,,lsc,mdzz,22,female,right,mouse,yes,2020-12-12_10h33.47.787,facelocalization,2020.1.2,MacIntel,60,0.15125,0.3025,1,0,0,0.95,18,0,212,212,201,1,5
,,,,,,0.1475,-0.01875,1,0,0,0.516,M,,,,,,0.254556,0.254556,,lsc,mdzz,22,female,right,mouse,yes,2020-12-12_10h33.47.787,facelocalization,2020.1.2,MacIntel,60,0.2825,0.20625,1,0,0,0.883,27,0,213,213,294,1,7
,,,,,,0.1475,-0.00875,1,0,0,0.567,M,,,,,,0.332586,0.137754,,lsc,mdzz,22,female,right,mouse,yes,2020-12-12_10h33.47.787,facelocalization,2020.1.2,MacIntel,60,0.37,0.1075,1,0,0,0.9,22,0,214,214,243,1,6
,,,,,,0.155,-0.02125,1,0,0,0.7,M,,,,,,-0.093168,0.347724,,lsc,mdzz,22,female,right,mouse,yes,2020-12-12_10h33.47.787,facelocalization,2020.1.2,MacIntel,60,-0.06,0.375,1,0,0,0.934,5,0,215,215,62,1,2
,,,,,,0.15875,-0.00875,1,0,0,0.567,M,,,,,,0.31176,-0.18,,lsc,mdzz,22,female,right,mouse,yes,2020-12-12_10h33.47.787,facelocalization,2020.1.2,MacIntel,60,0.3575,-0.19,1,0,0,1.034,14,0,216,216,188,1,4
,,,,,,0.14,0.00875,1,0,0,0.516,M,,,,,,0.332586,-0.137754,,lsc,mdzz,22,female,right,mouse,yes,2020-12-12_10h33.47.787,facelocalization,2020.1.2,MacIntel,60,0.3825,-0.15875,1,0,0,0.917,21,0,217,217,285,1,6
,,,,,,0.1625,-0.01,1,0,0,0.8,M,,,,,,0,0.36,,lsc,mdzz,22,female,right,mouse,yes,2020-12-12_10h33.47.787,facelocalization,2020.1.2,MacIntel,60,0.02625,0.32125,1,0,0,0.9,16,0,218,218,156,1,4
,,,,,,-0.12,0.0225,1,0,0,0.751,F,,,,,,0.21915,0.285606,,lsc,mdzz,22,female,right,mouse,yes,2020-12-12_10h33.47.787,facelocalization,2020.1.2,MacIntel,60,0.23,0.26,1,0,0,0.867,19,0,219,219,199,1,5
,,,,,,0.1375,-0.00375,1,0,0,0.517,M,,,,,,0.332586,-0.137754,,lsc,mdzz,22,female,right,mouse,yes,2020-12-12_10h33.47.787,facelocalization,2020.1.2,MacIntel,60,0.335,-0.13625,1,0,0,0.951,27,0,220,220,333,1,7
,,,,,,-0.1275,-0.00125,1,0,0,0.518,F,,,,,,-0.285606,-0.21915,,lsc,mdzz,22,female,right,mouse,yes,2020-12-12_10h33.47.787,facelocalization,2020.1.2,MacIntel,60,-0.23125,-0.2075,1,0,0,0.999,7,0,221,221,77,1,2
,,,,,,0.13,0.00625,1,0,0,0.533,M,,,,,,0.285606,-0.21915,,lsc,mdzz,22,female,right,mouse,yes,2020-12-12_10h33.47.787,facelocalization,2020.1.2,MacIntel,60,0.335,-0.20375,1,0,0,1.034,2,0,222,222,43,1,1
,,,,,,0.15625,-0.01,1,0,0,0.75,M,,,,,,0.347724,0.093168,,lsc,mdzz,22,female,right,mouse,yes,2020-12-12_10h33.47.787,facelocalization,2020.1.2,MacIntel,60,0.38375,0.08875,1,0,0,0.8,23,0,223,223,242,1,6
,,,,,,-0.1325,-0.0175,1,0,0,0.616,F,,,,,,-0.285606,0.21915,,lsc,mdzz,22,female,right,mouse,yes,2020-12-12_10h33.47.787,facelocalization,2020.1.2,MacIntel,60,-0.275,0.21375,1,0,0,1.15,19,0,224,224,211,1,5
,,,,,,-0.155,-0.00875,1,0,0,0.667,F,,,,,,-0.137754,-0.332586,,lsc,mdzz,22,female,right,mouse,yes,2020-12-12_10h33.47.787,facelocalization,2020.1.2,MacIntel,60,-0.1125,-0.30875,1,0,0,1.067,17,0,225,225,225,1,5
,,,,,,0.15875,0.01375,1,0,0,0.701,M,,,,,,-0.36,0,,lsc,mdzz,22,female,right,mouse,yes,2020-12-12_10h33.47.787,facelocalization,2020.1.2,MacIntel,60,-0.34125,-0.005,1,0,0,0.934,21,0,226,226,264,1,6
,,,,,,0.12,0.005,1,0,0,0.85,M,,,,,,-0.332586,0.137754,,lsc,mdzz,22,female,right,mouse,yes,2020-12-12_10h33.47.787,facelocalization,2020.1.2,MacIntel,60,-0.3025,0.13125,1,0,0,0.984,9,0,227,227,117,1,3
,,,,,,0.13625,-0.015,1,0,0,0.714,M,,,,,,0.254556,0.254556,,lsc,mdzz,22,female,right,mouse,yes,2020-12-12_10h33.47.787,facelocalization,2020.1.2,MacIntel,60,0.305,0.23125,1,0,0,1,1,0,228,228,6,1,1
,,,,,,0.13,0.00375,1,0,0,0.616,M,,,,,,0.36,0,,lsc,mdzz,22,female,right,mouse,yes,2020-12-12_10h33.47.787,facelocalization,2020.1.2,MacIntel,60,0.3775,0.00125,1,0,0,0.885,29,0,229,229,336,1,8
,,,,,,-0.16625,-0.0175,1,0,0,0.583,F,,,,,,-0.347724,0.093168,,lsc,mdzz,22,female,right,mouse,yes,2020-12-12_10h33.47.787,facelocalization,2020.1.2,MacIntel,60,-0.36625,0.11875,1,0,0,0.984,23,0,230,230,262,1,6
,,,,,,0.15125,-0.0075,1,0,0,0.534,M,,,,,,0.137754,0.332586,,lsc,mdzz,22,female,right,mouse,yes,2020-12-12_10h33.47.787,facelocalization,2020.1.2,MacIntel,60,0.14375,0.31,1,0,0,0.849,5,0,231,231,57,1,2
,,,,,,-0.145,0.00375,1,0,0,0.916,F,,,,,,0.31176,-0.18,,lsc,mdzz,22,female,right,mouse,yes,2020-12-12_10h33.47.787,facelocalization,2020.1.2,MacIntel,60,0.355,-0.21,1,0,0,0.983,29,0,232,232,380,1,8
,,,,,,0.135,0.01125,1,0,0,0.667,M,,,,,,-0.18,-0.31176,,lsc,mdzz,22,female,right,mouse,yes,2020-12-12_10h33.47.787,facelocalization,2020.1.2,MacIntel,60,-0.235,-0.30375,1,0,0,1.117,28,0,233,233,320,1,7
,,,,,,0.15375,-0.01,1,0,0,0.55,M,,,,,,-0.31176,0.18,,lsc,mdzz,22,female,right,mouse,yes,2020-12-12_10h33.47.787,facelocalization,2020.1.2,MacIntel,60,-0.3125,0.18375,1,0,0,0.933,9,0,234,234,116,1,3
,,,,,,0.13625,-0.0125,1,0,0,0.484,M,,,,,,0.31176,-0.18,,lsc,mdzz,22,female,right,mouse,yes,2020-12-12_10h33.47.787,facelocalization,2020.1.2,MacIntel,60,0.3225,-0.1675,1,0,0,1.267,7,0,235,235,92,1,2
,,,,,,-0.1325,-0.00875,1,0,0,0.6,F,,,,,,-0.347724,0.093168,,lsc,mdzz,22,female,right,mouse,yes,2020-12-12_10h33.47.787,facelocalization,2020.1.2,MacIntel,60,-0.3625,0.10125,1,0,0,1.149,3,0,236,236,22,1,1
,,,,,,0.14375,0.005,1,0,0,0.968,M,,,,,,-0.31176,0.18,,lsc,mdzz,22,female,right,mouse,yes,2020-12-12_10h33.47.787,facelocalization,2020.1.2,MacIntel,60,-0.32875,0.1675,1,0,0,1.533,25,0,237,237,308,1,7
,,,,,,-0.13875,0,1,0,0,0.5,F,,,,,,-0.18,-0.31176,,lsc,mdzz,22,female,right,mouse,yes,2020-12-12_10h33.47.787,facelocalization,2020.1.2,MacIntel,60,-0.13,-0.29,1,0,0,1.202,3,0,238,238,32,1,1
,,,,,,-0.15125,-0.01625,1,0,0,0.583,F,,,,,,-0.21915,-0.285606,,lsc,mdzz,22,female,right,mouse,yes,2020-12-12_10h33.47.787,facelocalization,2020.1.2,MacIntel,60,-0.20875,-0.29625,1,0,0,1.133,13,0,239,239,175,1,4
,,,,,,-0.13875,-0.00375,1,0,0,0.634,F,,,,,,0.093168,-0.347724,,lsc,mdzz,22,female,right,mouse,yes,2020-12-12_10h33.47.787,facelocalization,2020.1.2,MacIntel,60,0.06,-0.3475,1,0,0,1.2,23,0,240,240,278,1,6
,,,,,,0.1475,-0.0075,1,0,0,0.633,M,,,,,,-0.137754,0.332586,,lsc,mdzz,22,female,right,mouse,yes,2020-12-12_10h33.47.787,facelocalization,2020.1.2,MacIntel,60,-0.105,0.32375,1,0,0,1.167,13,0,241,241,159,1,4
,,,,,,0.14,-0.00125,1,0,0,0.717,M,,,,,,-0.36,0,,lsc,mdzz,22,female,right,mouse,yes,2020-12-12_10h33.47.787,facelocalization,2020.1.2,MacIntel,60,-0.31875,-0.00125,1,0,0,1.267,26,0,242,242,312,1,7
,,,,,,0.14625,-0.00375,1,0,0,0.584,M,,,,,,-0.347724,0.093168,,lsc,mdzz,22,female,right,mouse,yes,2020-12-12_10h33.47.787,facelocalization,2020.1.2,MacIntel,60,-0.32875,0.09375,1,0,0,0.984,30,0,243,243,358,1,8
,,,,,,0.14375,0.00875,1,0,0,0.767,M,,,,,,-0.04698,0.356904,,lsc,mdzz,22,female,right,mouse,yes,2020-12-12_10h33.47.787,facelocalization,2020.1.2,MacIntel,60,0,0.28,1,0,0,1.25,5,0,244,244,61,1,2
,,,,,,-0.1425,0.00625,1,0,0,0.784,F,,,,,,0.31176,0.18,,lsc,mdzz,22,female,right,mouse,yes,2020-12-12_10h33.47.787,facelocalization,2020.1.2,MacIntel,60,0.34375,0.1425,1,0,0,1.018,17,0,245,245,196,1,5
,,,,,,0.155,-0.00875,1,0,0,0.616,M,,,,,,-0.31176,-0.18,,lsc,mdzz,22,female,right,mouse,yes,2020-12-12_10h33.47.787,facelocalization,2020.1.2,MacIntel,60,-0.2775,-0.17375,1,0,0,1.133,12,0,246,246,124,1,3
,,,,,,0.155,-0.01,1,0,0,0.582,M,,,,,,0.36,0,,lsc,mdzz,22,female,right,mouse,yes,2020-12-12_10h33.47.787,facelocalization,2020.1.2,MacIntel,60,0.3925,0.005,1,0,0,1.034,7,0,247,247,48,1,2
,,,,,,0.14375,-0.0025,1,0,0,0.682,M,,,,,,-0.36,0,,lsc,mdzz,22,female,right,mouse,yes,2020-12-12_10h33.47.787,facelocalization,2020.1.2,MacIntel,60,-0.285,-0.005,1,0,0,1.017,6,0,248,248,72,1,2
,,,,,,0.1425,-0.01375,1,0,0,0.483,M,,,,,,0.18,-0.31176,,lsc,mdzz,22,female,right,mouse,yes,2020-12-12_10h33.47.787,facelocalization,2020.1.2,MacIntel,60,0.1825,-0.3175,1,0,0,1.05,32,0,249,249,376,1,8
,,,,,,-0.16375,-0.00125,1,0,0,0.617,F,,,,,,0.04698,0.356904,,lsc,mdzz,22,female,right,mouse,yes,2020-12-12_10h33.47.787,facelocalization,2020.1.2,MacIntel,60,0.08875,0.31625,1,0,0,1.168,4,0,250,250,11,1,1
,,,,,,0.16125,-0.015,1,0,0,0.684,M,,,,,,-0.285606,0.21915,,lsc,mdzz,22,female,right,mouse,yes,2020-12-12_10h33.47.787,facelocalization,2020.1.2,MacIntel,60,-0.25875,0.24,1,0,0,1.084,12,0,251,251,115,1,3
,,,,,,-0.14375,-0.005,1,0,0,0.683,F,,,,,,0.285606,0.21915,,lsc,mdzz,22,female,right,mouse,yes,2020-12-12_10h33.47.787,facelocalization,2020.1.2,MacIntel,60,0.36625,0.21875,1,0,0,0.867,20,0,252,252,197,1,5
,,,,,,0.1475,-0.01625,1,0,0,0.667,M,,,,,,-0.254556,0.254556,,lsc,mdzz,22,female,right,mouse,yes,2020-12-12_10h33.47.787,facelocalization,2020.1.2,MacIntel,60,-0.24125,0.2625,1,0,0,1.133,11,0,253,253,114,1,3
,,,,,,-0.14375,0.00875,1,0,0,0.666,F,,,,,,0.093168,0.347724,,lsc,mdzz,22,female,right,mouse,yes,2020-12-12_10h33.47.787,facelocalization,2020.1.2,MacIntel,60,0.135,0.3025,1,0,0,1.034,20,0,254,254,202,1,5
,,,,,,0.1675,0.005,1,0,0,0.649,M,,,,,,0.356904,-0.04698,,lsc,mdzz,22,female,right,mouse,yes,2020-12-12_10h33.47.787,facelocalization,2020.1.2,MacIntel,60,0.405,-0.03625,1,0,0,1.034,5,0,255,255,95,1,2
,,,,,,-0.15625,0.00125,1,0,0,0.616,F,,,,,,-0.332586,0.137754,,lsc,mdzz,22,female,right,mouse,yes,2020-12-12_10h33.47.787,facelocalization,2020.1.2,MacIntel,60,-0.3225,0.1625,1,0,0,1.133,13,0,256,256,165,1,4
,,,,,,0.1425,-0.01375,1,0,0,0.6,M,,,,,,-0.31176,0.18,,lsc,mdzz,22,female,right,mouse,yes,2020-12-12_10h33.47.787,facelocalization,2020.1.2,MacIntel,60,-0.32375,0.2075,1,0,0,1.117,21,0,257,257,260,1,6
,,,,,,0.15375,0.00375,1,0,0,0.617,M,,,,,,0.04698,0.356904,,lsc,mdzz,22,female,right,mouse,yes,2020-12-12_10h33.47.787,facelocalization,2020.1.2,MacIntel,60,0.0675,0.33875,1,0,0,1.067,22,0,258,258,251,1,6
,,,,,,-0.15125,-0.005,1,0,0,0.55,F,,,,,,-0.332586,0.137754,,lsc,mdzz,22,female,right,mouse,yes,2020-12-12_10h33.47.787,facelocalization,2020.1.2,MacIntel,60,-0.32625,0.16,1,0,0,1.116,4,0,259,259,21,1,1
,,,,,,-0.12625,0.01375,1,0,0,0.6,F,,,,,,0.21915,-0.285606,,lsc,mdzz,22,female,right,mouse,yes,2020-12-12_10h33.47.787,facelocalization,2020.1.2,MacIntel,60,0.21875,-0.2775,1,0,0,1.001,28,0,260,260,329,1,7
,,,,,,0.15875,-0.00625,1,0,0,0.517,M,,,,,,-0.093168,-0.347724,,lsc,mdzz,22,female,right,mouse,yes,2020-12-12_10h33.47.787,facelocalization,2020.1.2,MacIntel,60,-0.06375,-0.3475,1,0,0,1,6,0,261,261,82,1,2
,,,,,,0.1325,0.00625,1,0,0,0.633,M,,,,,,0.18,-0.31176,,lsc,mdzz,22,female,right,mouse,yes,2020-12-12_10h33.47.787,facelocalization,2020.1.2,MacIntel,60,0.18875,-0.32125,1,0,0,1.167,15,0,262,262,184,1,4
,,,,,,0.1425,-0.005,1,0,0,0.817,M,,,,,,0.21915,0.285606,,lsc,mdzz,22,female,right,mouse,yes,2020-12-12_10h33.47.787,facelocalization,2020.1.2,MacIntel,60,0.255,0.285,1,0,0,0.984,15,0,263,263,151,1,4
,,,,,,0.13875,0.0325,1,0,0,0.534,M,,,,,,0.04698,-0.356904,,lsc,mdzz,22,female,right,mouse,yes,2020-12-12_10h33.47.787,facelocalization,2020.1.2,MacIntel,60,0.0475,-0.37125,1,0,0,0.867,26,0,264,264,325,1,7
,,,,,,0.13875,-0.0025,1,0,0,0.583,M,,,,,,-0.04698,-0.356904,,lsc,mdzz,22,female,right,mouse,yes,2020-12-12_10h33.47.787,facelocalization,2020.1.2,MacIntel,60,-0.035,-0.3825,1,0,0,1.1,24,0,265,265,275,1,6
,,,,,,0.15125,-0.01125,1,0,0,0.633,M,,,,,,-0.21915,-0.285606,,lsc,mdzz,22,female,right,mouse,yes,2020-12-12_10h33.47.787,facelocalization,2020.1.2,MacIntel,60,-0.175,-0.29375,1,0,0,1.085,25,0,266,266,319,1,7
,,,,,,-0.1475,0.00375,1,0,0,0.818,F,,,,,,0.356904,0.04698,,lsc,mdzz,22,female,right,mouse,yes,2020-12-12_10h33.47.787,facelocalization,2020.1.2,MacIntel,60,0.39375,0.04,1,0,0,0.899,17,0,267,267,193,1,5
,,,,,,0.12375,-0.01375,1,0,0,0.65,M,,,,,,-0.137754,-0.332586,,lsc,mdzz,22,female,right,mouse,yes,2020-12-12_10h33.47.787,facelocalization,2020.1.2,MacIntel,60,-0.135,-0.34,1,0,0,0.884,7,0,268,268,81,1,2
,,,,,,0.14625,0.005,1,0,0,0.617,M,,,,,,-0.347724,-0.093168,,lsc,mdzz,22,female,right,mouse,yes,2020-12-12_10h33.47.787,facelocalization,2020.1.2,MacIntel,60,-0.3275,-0.0825,1,0,0,0.951,21,0,269,269,266,1,6
,,,,,,-0.14125,0.00125,1,0,0,0.6,F,,,,,,0.093168,0.347724,,lsc,mdzz,22,female,right,mouse,yes,2020-12-12_10h33.47.787,facelocalization,2020.1.2,MacIntel,60,0.10625,0.34,1,0,0,0.934,31,0,270,270,346,1,8
,,,,,,0.12625,0.00125,1,0,0,0.551,M,,,,,,-0.21915,0.285606,,lsc,mdzz,22,female,right,mouse,yes,2020-12-12_10h33.47.787,facelocalization,2020.1.2,MacIntel,60,-0.165,0.28125,1,0,0,1.033,22,0,271,271,257,1,6
,,,,,,0.12625,0.02875,1,0,0,0.516,M,,,,,,-0.18,0.31176,,lsc,mdzz,22,female,right,mouse,yes,2020-12-12_10h33.47.787,facelocalization,2020.1.2,MacIntel,60,-0.1375,0.29125,1,0,0,1.283,11,0,272,272,112,1,3
,,,,,,0.1375,-0.00625,1,0,0,0.633,M,,,,,,0.04698,-0.356904,,lsc,mdzz,22,female,right,mouse,yes,2020-12-12_10h33.47.787,facelocalization,2020.1.2,MacIntel,60,0.03625,-0.3525,1,0,0,1.051,10,0,273,273,133,1,3
,,,,,,0.18,-0.01875,1,0,0,0.767,M,,,,,,-0.31176,0.18,,lsc,mdzz,22,female,right,mouse,yes,2020-12-12_10h33.47.787,facelocalization,2020.1.2,MacIntel,60,-0.27875,0.18625,1,0,0,1.317,2,0,274,274,20,1,1
,,,,,,-0.11625,0,1,0,0,0.583,F,,,,,,0,-0.36,,lsc,mdzz,22,female,right,mouse,yes,2020-12-12_10h33.47.787,facelocalization,2020.1.2,MacIntel,60,0.0125,-0.35125,1,0,0,1.052,19,0,275,275,228,1,5
,,,,,,-0.1475,-0.015,1,0,0,0.666,F,,,,,,-0.137754,0.332586,,lsc,mdzz,22,female,right,mouse,yes,2020-12-12_10h33.47.787,facelocalization,2020.1.2,MacIntel,60,-0.1575,0.37125,1,0,0,1.133,27,0,276,276,303,1,7
,,,,,,0.13375,-0.00375,1,0,0,0.517,M,,,,,,-0.356904,-0.04698,,lsc,mdzz,22,female,right,mouse,yes,2020-12-12_10h33.47.787,facelocalization,2020.1.2,MacIntel,60,-0.34125,-0.04625,1,0,0,1.1,7,0,277,277,73,1,2
,,,,,,0.1375,0.0025,1,0,0,0.7,M,,,,,,0.347724,0.093168,,lsc,mdzz,22,female,right,mouse,yes,2020-12-12_10h33.47.787,facelocalization,2020.1.2,MacIntel,60,0.37625,0.06125,1,0,0,0.917,18,0,278,278,194,1,5
,,,,,,0.14375,-0.0275,1,0,0,0.583,M,,,,,,0.254556,0.254556,,lsc,mdzz,22,female,right,mouse,yes,2020-12-12_10h33.47.787,facelocalization,2020.1.2,MacIntel,60,0.3225,0.235,1,0,0,1.017,7,0,279,279,54,1,2
,,,,,,0.14625,-0.00125,1,0,0,0.667,M,,,,,,-0.137754,-0.332586,,lsc,mdzz,22,female,right,mouse,yes,2020-12-12_10h33.47.787,facelocalization,2020.1.2,MacIntel,60,-0.105,-0.31875,1,0,0,1.084,12,0,280,280,129,1,3
,,,,,,0.13,-0.0025,1,0,0,0.517,M,,,,,,0.093168,0.347724,,lsc,mdzz,22,female,right,mouse,yes,2020-12-12_10h33.47.787,facelocalization,2020.1.2,MacIntel,60,0.1225,0.3325,1,0,0,0.9,9,0,281,281,106,1,3
,,,,,,0.1425,0.00625,1,0,0,0.5,M,,,,,,0,-0.36,,lsc,mdzz,22,female,right,mouse,yes,2020-12-12_10h33.47.787,facelocalization,2020.1.2,MacIntel,60,-0.02,-0.3825,1,0,0,0.967,16,0,282,282,180,1,4
,,,,,,0.15,-0.0225,1,0,0,0.634,M,,,,,,-0.093168,0.347724,,lsc,mdzz,22,female,right,mouse,yes,2020-12-12_10h33.47.787,facelocalization,2020.1.2,MacIntel,60,-0.06875,0.37125,1,0,0,1.1,2,0,283,283,14,1,1
,,,,,,-0.1525,-0.01625,1,0,0,0.567,F,,,,,,-0.093168,0.347724,,lsc,mdzz,22,female,right,mouse,yes,2020-12-12_10h33.47.787,facelocalization,2020.1.2,MacIntel,60,-0.025,0.33,1,0,0,0.933,12,0,284,284,110,1,3
,,,,,,0.14,-0.02375,1,0,0,0.583,M,,,,,,0.21915,-0.285606,,lsc,mdzz,22,female,right,mouse,yes,2020-12-12_10h33.47.787,facelocalization,2020.1.2,MacIntel,60,0.22875,-0.31,1,0,0,0.983,3,0,285,285,41,1,1
,,,,,,0.16875,0,1,0,0,0.616,M,,,,,,0.21915,-0.285606,,lsc,mdzz,22,female,right,mouse,yes,2020-12-12_10h33.47.787,facelocalization,2020.1.2,MacIntel,60,0.2675,-0.27125,1,0,0,1.083,15,0,286,286,185,1,4
,,,,,,0.16,0.00375,1,0,0,0.517,M,,,,,,0.332586,-0.137754,,lsc,mdzz,22,female,right,mouse,yes,2020-12-12_10h33.47.787,facelocalization,2020.1.2,MacIntel,60,0.3725,-0.14375,1,0,0,0.918,8,0,287,287,93,1,2
,,,,,,-0.14,-0.0075,1,0,0,0.585,F,,,,,,0.04698,-0.356904,,lsc,mdzz,22,female,right,mouse,yes,2020-12-12_10h33.47.787,facelocalization,2020.1.2,MacIntel,60,0.0675,-0.375,1,0,0,1.166,4,0,288,288,37,1,1
,,,,,,0.15125,0.01,1,0,0,0.668,M,,,,,,0.18,0.31176,,lsc,mdzz,22,female,right,mouse,yes,2020-12-12_10h33.47.787,facelocalization,2020.1.2,MacIntel,60,0.2075,0.29875,1,0,0,0.917,31,0,289,289,344,1,8
,,,,,,0.1525,-0.0025,1,0,0,0.583,M,,,,,,0.356904,-0.04698,,lsc,mdzz,22,female,right,mouse,yes,2020-12-12_10h33.47.787,facelocalization,2020.1.2,MacIntel,60,0.3875,-0.035,1,0,0,1.117,16,0,290,290,191,1,4
,,,,,,0.12125,-0.01625,1,0,0,0.567,M,,,,,,-0.04698,-0.356904,,lsc,mdzz,22,female,right,mouse,yes,2020-12-12_10h33.47.787,facelocalization,2020.1.2,MacIntel,60,-0.01125,-0.38375,1,0,0,1.101,8,0,291,291,83,1,2
,,,,,,0.14375,0.005,1,0,0,0.483,M,,,,,,0.137754,-0.332586,,lsc,mdzz,22,female,right,mouse,yes,2020-12-12_10h33.47.787,facelocalization,2020.1.2,MacIntel,60,0.1475,-0.33875,1,0,0,0.95,21,0,292,292,279,1,6
,,,,,,-0.14125,-0.0025,1,0,0,0.65,F,,,,,,0.356904,-0.04698,,lsc,mdzz,22,female,right,mouse,yes,2020-12-12_10h33.47.787,facelocalization,2020.1.2,MacIntel,60,0.37875,-0.045,1,0,0,0.833,19,0,293,293,239,1,5
,,,,,,0.145,-0.005,1,0,0,0.668,M,,,,,,-0.332586,-0.137754,,lsc,mdzz,22,female,right,mouse,yes,2020-12-12_10h33.47.787,facelocalization,2020.1.2,MacIntel,60,-0.36375,-0.1375,1,0,0,0.8,2,0,294,294,27,1,1
,,,,,,-0.15125,0.0075,1,0,0,0.668,F,,,,,,0.254556,0.254556,,lsc,mdzz,22,female,right,mouse,yes,2020-12-12_10h33.47.787,facelocalization,2020.1.2,MacIntel,60,0.26,0.27,1,0,0,0.899,19,0,295,295,198,1,5
,,,,,,-0.16125,-0.0175,1,0,0,0.784,F,,,,,,0.04698,0.356904,,lsc,mdzz,22,female,right,mouse,yes,2020-12-12_10h33.47.787,facelocalization,2020.1.2,MacIntel,60,0.07,0.39125,1,0,0,0.951,8,0,296,296,59,1,2
,,,,,,0.13875,0.00625,1,0,0,0.6,M,,,,,,0.137754,0.332586,,lsc,mdzz,22,female,right,mouse,yes,2020-12-12_10h33.47.787,facelocalization,2020.1.2,MacIntel,60,0.1525,0.3125,1,0,0,1.017,30,0,297,297,345,1,8
,,,,,,0.11875,-0.00125,1,0,0,0.717,M,,,,,,-0.332586,0.137754,,lsc,mdzz,22,female,right,mouse,yes,2020-12-12_10h33.47.787,facelocalization,2020.1.2,MacIntel,60,-0.3375,0.1475,1,0,0,1.017,21,0,298,298,261,1,6
,,,,,,0.15375,-0.00875,1,0,0,0.533,M,,,,,,0.18,-0.31176,,lsc,mdzz,22,female,right,mouse,yes,2020-12-12_10h33.47.787,facelocalization,2020.1.2,MacIntel,60,0.1975,-0.32,1,0,0,0.884,8,0,299,299,88,1,2
,,,,,,-0.135,-0.01125,1,0,0,0.583,F,,,,,,0,-0.36,,lsc,mdzz,22,female,right,mouse,yes,2020-12-12_10h33.47.787,facelocalization,2020.1.2,MacIntel,60,0.02,-0.36375,1,0,0,0.901,9,0,300,300,132,1,3
,,,,,,0.13375,0.0025,1,0,0,0.752,M,,,,,,-0.332586,0.137754,,lsc,mdzz,22,female,right,mouse,yes,2020-12-12_10h33.47.787,facelocalization,2020.1.2,MacIntel,60,-0.3275,0.14625,1,0,0,0.815,6,0,301,301,69,1,2
,,,,,,-0.135,-0.015,1,0,0,0.5,F,,,,,,0.18,-0.31176,,lsc,mdzz,22,female,right,mouse,yes,2020-12-12_10h33.47.787,facelocalization,2020.1.2,MacIntel,60,0.2,-0.3325,1,0,0,0.932,12,0,302,302,136,1,3
,,,,,,0.15125,-0.0225,1,0,0,0.617,M,,,,,,-0.332586,0.137754,,lsc,mdzz,22,female,right,mouse,yes,2020-12-12_10h33.47.787,facelocalization,2020.1.2,MacIntel,60,-0.35375,0.1425,1,0,0,0.884,18,0,303,303,213,1,5
,,,,,,0.165,0.005,1,0,0,0.617,M,,,,,,-0.21915,0.285606,,lsc,mdzz,22,female,right,mouse,yes,2020-12-12_10h33.47.787,facelocalization,2020.1.2,MacIntel,60,-0.20625,0.3075,1,0,0,1.033,5,0,304,304,65,1,2
,,,,,,-0.15125,-0.00125,1,0,0,0.567,F,,,,,,0.137754,-0.332586,,lsc,mdzz,22,female,right,mouse,yes,2020-12-12_10h33.47.787,facelocalization,2020.1.2,MacIntel,60,0.15625,-0.3475,1,0,0,0.867,2,0,305,305,39,1,1
,,,,,,-0.145,0.0025,1,0,0,0.568,F,,,,,,-0.093168,-0.347724,,lsc,mdzz,22,female,right,mouse,yes,2020-12-12_10h33.47.787,facelocalization,2020.1.2,MacIntel,60,-0.07125,-0.35375,1,0,0,0.849,13,0,306,306,178,1,4
,,,,,,0.1675,0.0025,1,0,0,0.5,M,,,,,,0.18,-0.31176,,lsc,mdzz,22,female,right,mouse,yes,2020-12-12_10h33.47.787,facelocalization,2020.1.2,MacIntel,60,0.19125,-0.3175,1,0,0,0.933,22,0,307,307,280,1,6
,,,,,,0.13125,-0.02875,1,0,0,0.533,M,,,,,,0.254556,0.254556,,lsc,mdzz,22,female,right,mouse,yes,2020-12-12_10h33.47.787,facelocalization,2020.1.2,MacIntel,60,0.30625,0.2425,1,0,0,0.933,22,0,308,308,246,1,6
,,,,,,-0.14125,0.00875,1,0,0,0.734,F,,,,,,-0.093168,0.347724,,lsc,mdzz,22,female,right,mouse,yes,2020-12-12_10h33.47.787,facelocalization,2020.1.2,MacIntel,60,-0.06375,0.36625,1,0,0,0.982,30,0,309,309,350,1,8
,,,,,,-0.13375,-0.005,1,0,0,0.55,F,,,,,,-0.332586,-0.137754,,lsc,mdzz,22,female,right,mouse,yes,2020-12-12_10h33.47.787,facelocalization,2020.1.2,MacIntel,60,-0.32375,-0.14375,1,0,0,1.001,14,0,310,310,171,1,4
,,,,,,0.1425,-0.00875,1,0,0,0.533,M,,,,,,-0.18,-0.31176,,lsc,mdzz,22,female,right,mouse,yes,2020-12-12_10h33.47.787,facelocalization,2020.1.2,MacIntel,60,-0.155,-0.31875,1,0,0,0.9,8,0,311,311,80,1,2
,,,,,,0.11125,-0.02,1,0,0,0.601,M,,,,,,-0.093168,-0.347724,,lsc,mdzz,22,female,right,mouse,yes,2020-12-12_10h33.47.787,facelocalization,2020.1.2,MacIntel,60,-0.09125,-0.3225,1,0,0,0.949,2,0,312,312,34,1,1
,,,,,,-0.1375,0.0025,1,0,0,0.65,F,,,,,,0.332586,-0.137754,,lsc,mdzz,22,female,right,mouse,yes,2020-12-12_10h33.47.787,facelocalization,2020.1.2,MacIntel,60,0.36125,-0.14125,1,0,0,0.968,1,0,313,313,45,1,1
,,,,,,-0.1575,-0.00125,1,0,0,0.55,F,,,,,,-0.21915,-0.285606,,lsc,mdzz,22,female,right,mouse,yes,2020-12-12_10h33.47.787,facelocalization,2020.1.2,MacIntel,60,-0.2075,-0.31125,1,0,0,0.967,4,0,314,314,31,1,1
,,,,,,0.12375,-0.01375,1,0,0,0.568,M,,,,,,-0.36,0,,lsc,mdzz,22,female,right,mouse,yes,2020-12-12_10h33.47.787,facelocalization,2020.1.2,MacIntel,60,-0.385,0.015,1,0,0,1.165,16,0,315,315,168,1,4
,,,,,,-0.13875,0.00125,1,0,0,0.668,F,,,,,,0.31176,-0.18,,lsc,mdzz,22,female,right,mouse,yes,2020-12-12_10h33.47.787,facelocalization,2020.1.2,MacIntel,60,0.34625,-0.165,1,0,0,0.9,4,0,316,316,44,1,1
,,,,,,0.1575,-0.00125,1,0,0,0.75,M,,,,,,0.36,0,,lsc,mdzz,22,female,right,mouse,yes,2020-12-12_10h33.47.787,facelocalization,2020.1.2,MacIntel,60,0.385,-0.0075,1,0,0,0.951,15,0,317,317,144,1,4
,,,,,,-0.16,-0.01375,1,0,0,0.6,F,,,,,,0,0.36,,lsc,mdzz,22,female,right,mouse,yes,2020-12-12_10h33.47.787,facelocalization,2020.1.2,MacIntel,60,0.01625,0.35,1,0,0,1.1,4,0,318,318,12,1,1
,,,,,,0.1525,-0.00375,1,0,0,0.633,M,,,,,,-0.254556,-0.254556,,lsc,mdzz,22,female,right,mouse,yes,2020-12-12_10h33.47.787,facelocalization,2020.1.2,MacIntel,60,-0.25875,-0.2525,1,0,0,1.065,22,0,319,319,270,1,6
,,,,,,-0.14625,-0.0075,1,0,0,0.668,F,,,,,,-0.254556,0.254556,,lsc,mdzz,22,female,right,mouse,yes,2020-12-12_10h33.47.787,facelocalization,2020.1.2,MacIntel,60,-0.205,0.28875,1,0,0,1.083,3,0,320,320,18,1,1
,,,,,,0.115,-0.0275,1,0,0,0.667,M,,,,,,-0.31176,-0.18,,lsc,mdzz,22,female,right,mouse,yes,2020-12-12_10h33.47.787,facelocalization,2020.1.2,MacIntel,60,-0.30625,-0.17625,1,0,0,0.967,20,0,321,321,220,1,5
,,,,,,-0.13625,0.00625,1,0,0,0.518,F,,,,,,-0.18,0.31176,,lsc,mdzz,22,female,right,mouse,yes,2020-12-12_10h33.47.787,facelocalization,2020.1.2,MacIntel,60,-0.1975,0.3575,1,0,0,0.849,3,0,322,322,16,1,1
,,,,,,0.14875,-0.0075,1,0,0,0.568,M,,,,,,0.04698,-0.356904,,lsc,mdzz,22,female,right,mouse,yes,2020-12-12_10h33.47.787,facelocalization,2020.1.2,MacIntel,60,0.04375,-0.3675,1,0,0,0.85,7,0,323,323,85,1,2
,,,,,,0.1475,0.0025,1,0,0,0.533,M,,,,,,-0.18,-0.31176,,lsc,mdzz,22,female,right,mouse,yes,2020-12-12_10h33.47.787,facelocalization,2020.1.2,MacIntel,60,-0.18375,-0.3175,1,0,0,1.051,24,0,324,324,272,1,6
,,,,,,-0.1225,0.00875,1,0,0,0.55,F,,,,,,0.285606,0.21915,,lsc,mdzz,22,female,right,mouse,yes,2020-12-12_10h33.47.787,facelocalization,2020.1.2,MacIntel,60,0.3375,0.175,1,0,0,0.901,12,0,325,325,101,1,3
,,,,,,0.13,0.0225,1,0,0,0.533,M,,,,,,0.332586,-0.137754,,lsc,mdzz,22,female,right,mouse,yes,2020-12-12_10h33.47.787,facelocalization,2020.1.2,MacIntel,60,0.32875,-0.12625,1,0,0,0.784,9,0,326,326,141,1,3
,,,,,,0.14375,0.005,1,0,0,0.533,M,,,,,,0.347724,0.093168,,lsc,mdzz,22,female,right,mouse,yes,2020-12-12_10h33.47.787,facelocalization,2020.1.2,MacIntel,60,0.4425,0.07125,1,0,0,0.833,32,0,327,327,338,1,8
,,,,,,0.12125,-0.00625,1,0,0,0.65,M,,,,,,0.21915,-0.285606,,lsc,mdzz,22,female,right,mouse,yes,2020-12-12_10h33.47.787,facelocalization,2020.1.2,MacIntel,60,0.2175,-0.265,1,0,0,0.917,6,0,328,328,89,1,2
,,,,,,-0.165,-0.00125,1,0,0,0.567,F,,,,,,-0.36,0,,lsc,mdzz,22,female,right,mouse,yes,2020-12-12_10h33.47.787,facelocalization,2020.1.2,MacIntel,60,-0.34375,0.005,1,0,0,1.051,4,0,329,329,24,1,1
,,,,,,0.1325,0.00625,1,0,0,0.584,M,,,,,,-0.332586,0.137754,,lsc,mdzz,22,female,right,mouse,yes,2020-12-12_10h33.47.787,facelocalization,2020.1.2,MacIntel,60,-0.34875,0.15625,1,0,0,0.867,31,0,330,330,357,1,8
,,,,,,0.15625,-0.01,1,0,0,0.467,M,,,,,,0.285606,-0.21915,,lsc,mdzz,22,female,right,mouse,yes,2020-12-12_10h33.47.787,facelocalization,2020.1.2,MacIntel,60,0.32125,-0.2475,1,0,0,0.934,15,0,331,331,187,1,4
,,,,,,-0.1525,0.025,1,0,0,0.601,F,,,,,,-0.18,0.31176,,lsc,mdzz,22,female,right,mouse,yes,2020-12-12_10h33.47.787,facelocalization,2020.1.2,MacIntel,60,-0.185,0.34,1,0,0,0.966,23,0,332,332,256,1,6
,,,,,,0.12375,0.005,1,0,0,0.484,M,,,,,,0.31176,0.18,,lsc,mdzz,22,female,right,mouse,yes,2020-12-12_10h33.47.787,facelocalization,2020.1.2,MacIntel,60,0.35375,0.15125,1,0,0,1.183,30,0,333,333,340,1,8
,,,,,,0.13625,-0.0275,1,0,0,0.433,M,,,,,,0.285606,-0.21915,,lsc,mdzz,22,female,right,mouse,yes,2020-12-12_10h33.47.787,facelocalization,2020.1.2,MacIntel,60,0.295,-0.2175,1,0,0,1.001,10,0,334,334,139,1,3
,,,,,,0.14,0.00125,1,0,0,0.533,M,,,,,,0.356904,0.04698,,lsc,mdzz,22,female,right,mouse,yes,2020-12-12_10h33.47.787,facelocalization,2020.1.2,MacIntel,60,0.355,0.025,1,0,0,0.884,24,0,335,335,241,1,6
,,,,,,0.13,-0.02375,1,0,0,0.584,M,,,,,,0.137754,-0.332586,,lsc,mdzz,22,female,right,mouse,yes,2020-12-12_10h33.47.787,facelocalization,2020.1.2,MacIntel,60,0.15375,-0.3275,1,0,0,0.95,7,0,336,336,87,1,2
,,,,,,0.1325,-0.0175,1,0,0,0.5,M,,,,,,0.04698,-0.356904,,lsc,mdzz,22,female,right,mouse,yes,2020-12-12_10h33.47.787,facelocalization,2020.1.2,MacIntel,60,0.05,-0.34875,1,0,0,1.016,31,0,337,337,373,1,8
,,,,,,0.11625,0.0075,1,0,0,0.567,M,,,,,,0.285606,0.21915,,lsc,mdzz,22,female,right,mouse,yes,2020-12-12_10h33.47.787,facelocalization,2020.1.2,MacIntel,60,0.3175,0.1875,1,0,0,0.935,8,0,338,338,53,1,2
,,,,,,0.12875,-0.005,1,0,0,0.4,M,,,,,,0.285606,-0.21915,,lsc,mdzz,22,female,right,mouse,yes,2020-12-12_10h33.47.787,facelocalization,2020.1.2,MacIntel,60,0.28,-0.21625,1,0,0,0.866,6,0,339,339,91,1,2
,,,,,,-0.135,0.0025,1,0,0,0.601,F,,,,,,0,0.36,,lsc,mdzz,22,female,right,mouse,yes,2020-12-12_10h33.47.787,facelocalization,2020.1.2,MacIntel,60,0.01875,0.28625,1,0,0,1.083,23,0,340,340,252,1,6
,,,,,,-0.13625,0.01375,1,0,0,0.567,F,,,,,,-0.04698,0.356904,,lsc,mdzz,22,female,right,mouse,yes,2020-12-12_10h33.47.787,facelocalization,2020.1.2,MacIntel,60,-0.00875,0.3025,1,0,0,1.117,19,0,341,341,205,1,5
,,,,,,0.15625,0.0025,1,0,0,0.65,M,,,,,,0,0.36,,lsc,mdzz,22,female,right,mouse,yes,2020-12-12_10h33.47.787,facelocalization,2020.1.2,MacIntel,60,0.0125,0.31625,1,0,0,0.867,10,0,342,342,108,1,3
,,,,,,0.16625,-0.02625,1,0,0,0.7,M,,,,,,-0.04698,0.356904,,lsc,mdzz,22,female,right,mouse,yes,2020-12-12_10h33.47.787,facelocalization,2020.1.2,MacIntel,60,-0.01125,0.315,1,0,0,1.134,11,0,343,343,109,1,3
,,,,,,0.17375,0.00875,1,0,0,0.684,M,,,,,,0.347724,-0.093168,,lsc,mdzz,22,female,right,mouse,yes,2020-12-12_10h33.47.787,facelocalization,2020.1.2,MacIntel,60,0.3725,-0.1375,1,0,0,1.017,12,0,344,344,142,1,3
,,,,,,-0.1475,-0.0075,1,0,0,0.617,F,,,,,,0.347724,0.093168,,lsc,mdzz,22,female,right,mouse,yes,2020-12-12_10h33.47.787,facelocalization,2020.1.2,MacIntel,60,0.4025,0.0575,1,0,0,1.017,13,0,345,345,146,1,4
,,,,,,-0.12375,0.02125,1,0,0,0.685,F,,,,,,0.04698,0.356904,,lsc,mdzz,22,female,right,mouse,yes,2020-12-12_10h33.47.787,facelocalization,2020.1.2,MacIntel,60,0.05,0.2975,1,0,0,1.449,30,0,346,346,347,1,8
,,,,,,-0.15,0.00625,1,0,0,0.668,F,,,,,,-0.04698,-0.356904,,lsc,mdzz,22,female,right,mouse,yes,2020-12-12_10h33.47.787,facelocalization,2020.1.2,MacIntel,60,-0.01375,-0.3525,1,0,0,1.116,31,0,347,347,371,1,8
,,,,,,0.08875,0.01,1,0,0,0.45,M,,,,,,0.36,0,,lsc,mdzz,22,female,right,mouse,yes,2020-12-12_10h33.47.787,facelocalization,2020.1.2,MacIntel,60,0.375,-0.01375,1,0,0,1.185,9,0,348,348,96,1,3
,,,,,,-0.15375,0.01625,1,0,0,0.717,F,,,,,,0.347724,-0.093168,,lsc,mdzz,22,female,right,mouse,yes,2020-12-12_10h33.47.787,facelocalization,2020.1.2,MacIntel,60,0.395,-0.09125,1,0,0,0.918,31,0,349,349,382,1,8
,,,,,,0.14875,-0.00875,1,0,0,0.6,M,,,,,,-0.254556,-0.254556,,lsc,mdzz,22,female,right,mouse,yes,2020-12-12_10h33.47.787,facelocalization,2020.1.2,MacIntel,60,-0.24125,-0.3,1,0,0,1.183,1,0,350,350,30,1,1
,,,,,,0.14,-0.01,1,0,0,0.55,M,,,,,,-0.21915,0.285606,,lsc,mdzz,22,female,right,mouse,yes,2020-12-12_10h33.47.787,facelocalization,2020.1.2,MacIntel,60,-0.21625,0.28625,1,0,0,0.984,18,0,351,351,209,1,5
,,,,,,-0.11875,0.00875,1,0,0,0.683,F,,,,,,-0.04698,0.356904,,lsc,mdzz,22,female,right,mouse,yes,2020-12-12_10h33.47.787,facelocalization,2020.1.2,MacIntel,60,-0.03125,0.285,1,0,0,1.017,23,0,352,352,253,1,6
,,,,,,0.15375,-0.02,1,0,0,0.584,M,,,,,,0.093168,0.347724,,lsc,mdzz,22,female,right,mouse,yes,2020-12-12_10h33.47.787,facelocalization,2020.1.2,MacIntel,60,0.10125,0.31875,1,0,0,1.151,22,0,353,353,250,1,6
,,,,,,0.1725,-0.0025,1,0,0,0.567,M,,,,,,0.18,0.31176,,lsc,mdzz,22,female,right,mouse,yes,2020-12-12_10h33.47.787,facelocalization,2020.1.2,MacIntel,60,0.21,0.28125,1,0,0,1.066,25,0,354,354,296,1,7
,,,,,,0.13375,-0.005,1,0,0,0.45,M,,,,,,0.356904,-0.04698,,lsc,mdzz,22,female,right,mouse,yes,2020-12-12_10h33.47.787,facelocalization,2020.1.2,MacIntel,60,0.38875,-0.04875,1,0,0,1.001,10,0,355,355,143,1,3
,,,,,,0.15,0.0025,1,0,0,0.633,M,,,,,,0.093168,0.347724,,lsc,mdzz,22,female,right,mouse,yes,2020-12-12_10h33.47.787,facelocalization,2020.1.2,MacIntel,60,0.06875,0.31,1,0,0,1.133,6,0,356,356,58,1,2
,,,,,,0.17,-0.01375,1,0,0,0.467,M,,,,,,-0.18,0.31176,,lsc,mdzz,22,female,right,mouse,yes,2020-12-12_10h33.47.787,facelocalization,2020.1.2,MacIntel,60,-0.165,0.31,1,0,0,1.1,16,0,357,357,160,1,4
,,,,,,-0.15,0.00625,1,0,0,0.683,F,,,,,,0.21915,0.285606,,lsc,mdzz,22,female,right,mouse,yes,2020-12-12_10h33.47.787,facelocalization,2020.1.2,MacIntel,60,0.295,0.29125,1,0,0,0.834,8,0,358,358,55,1,2
,,,,,,0.1275,0.00375,1,0,0,0.65,M,,,,,,-0.356904,0.04698,,lsc,mdzz,22,female,right,mouse,yes,2020-12-12_10h33.47.787,facelocalization,2020.1.2,MacIntel,60,-0.34875,0.03875,1,0,0,0.967,11,0,359,359,119,1,3
,,,,,,0.14625,0.0175,1,0,0,0.567,M,,,,,,-0.137754,-0.332586,,lsc,mdzz,22,female,right,mouse,yes,2020-12-12_10h33.47.787,facelocalization,2020.1.2,MacIntel,60,-0.115,-0.34125,1,0,0,1.084,25,0,360,360,321,1,7
,,,,,,-0.1275,0.02375,1,0,0,0.467,F,,,,,,-0.18,0.31176,,lsc,mdzz,22,female,right,mouse,yes,2020-12-12_10h33.47.787,facelocalization,2020.1.2,MacIntel,60,-0.17125,0.32375,1,0,0,1.101,20,0,361,361,208,1,5
,,,,,,0.16875,0.015,1,0,0,0.567,M,,,,,,-0.137754,0.332586,,lsc,mdzz,22,female,right,mouse,yes,2020-12-12_10h33.47.787,facelocalization,2020.1.2,MacIntel,60,-0.0975,0.34125,1,0,0,1.117,6,0,362,362,63,1,2
,,,,,,0.11125,0.0125,1,0,0,0.784,M,,,,,,-0.347724,0.093168,,lsc,mdzz,22,female,right,mouse,yes,2020-12-12_10h33.47.787,facelocalization,2020.1.2,MacIntel,60,-0.35875,0.105,1,0,0,1.001,25,0,363,363,310,1,7
,,,,,,0.14,-0.00125,1,0,0,0.517,M,,,,,,0.21915,-0.285606,,lsc,mdzz,22,female,right,mouse,yes,2020-12-12_10h33.47.787,facelocalization,2020.1.2,MacIntel,60,0.21875,-0.3175,1,0,0,0.867,24,0,364,364,281,1,6
,,,,,,-0.1725,-0.02375,1,0,0,0.584,F,,,,,,-0.285606,-0.21915,,lsc,mdzz,22,female,right,mouse,yes,2020-12-12_10h33.47.787,facelocalization,2020.1.2,MacIntel,60,-0.275,-0.2275,1,0,0,1.082,12,0,365,365,125,1,3
,,,,,,-0.16375,0.00125,1,0,0,0.433,F,,,,,,-0.285606,-0.21915,,lsc,mdzz,22,female,right,mouse,yes,2020-12-12_10h33.47.787,facelocalization,2020.1.2,MacIntel,60,-0.30875,-0.22,1,0,0,1.117,23,0,366,366,269,1,6
,,,,,,-0.145,0.005,1,0,0,0.683,F,,,,,,0.332586,-0.137754,,lsc,mdzz,22,female,right,mouse,yes,2020-12-12_10h33.47.787,facelocalization,2020.1.2,MacIntel,60,0.34375,-0.15,1,0,0,1.284,13,0,367,367,189,1,4
,,,,,,0.15,0.00125,1,0,0,0.55,M,,,,,,0.332586,0.137754,,lsc,mdzz,22,female,right,mouse,yes,2020-12-12_10h33.47.787,facelocalization,2020.1.2,MacIntel,60,0.37875,0.10875,1,0,0,1.168,15,0,368,368,147,1,4
,,,,,,-0.14875,-0.01125,1,0,0,0.651,F,,,,,,0.36,0,,lsc,mdzz,22,female,right,mouse,yes,2020-12-12_10h33.47.787,facelocalization,2020.1.2,MacIntel,60,0.3825,0.00375,1,0,0,1.1,20,0,369,369,192,1,5
,,,,,,0.1425,0.015,1,0,0,0.617,M,,,,,,-0.093168,0.347724,,lsc,mdzz,22,female,right,mouse,yes,2020-12-12_10h33.47.787,facelocalization,2020.1.2,MacIntel,60,-0.0825,0.34,1,0,0,1.681,26,0,370,370,302,1,7
,,,,,,0.12625,-0.01125,1,0,0,0.6,M,,,,,,0.31176,0.18,,lsc,mdzz,22,female,right,mouse,yes,2020-12-12_10h33.47.787,facelocalization,2020.1.2,MacIntel,60,0.34125,0.145,1,0,0,1.167,26,0,371,371,292,1,7
,,,,,,0.13375,0.01625,1,0,0,0.467,M,,,,,,0.04698,-0.356904,,lsc,mdzz,22,female,right,mouse,yes,2020-12-12_10h33.47.787,facelocalization,2020.1.2,MacIntel,60,0.045,-0.36375,1,0,0,0.967,18,0,372,372,229,1,5
,,,,,,-0.15125,0.00125,1,0,0,0.617,F,,,,,,0.254556,0.254556,,lsc,mdzz,22,female,right,mouse,yes,2020-12-12_10h33.47.787,facelocalization,2020.1.2,MacIntel,60,0.31625,0.20875,1,0,0,0.968,30,0,373,373,342,1,8
,,,,,,0.13625,0.01,1,0,0,0.45,M,,,,,,0.31176,0.18,,lsc,mdzz,22,female,right,mouse,yes,2020-12-12_10h33.47.787,facelocalization,2020.1.2,MacIntel,60,0.33625,0.1425,1,0,0,1.168,11,0,374,374,100,1,3
,,,,,,0.1575,0.00625,1,0,0,0.617,M,,,,,,-0.04698,0.356904,,lsc,mdzz,22,female,right,mouse,yes,2020-12-12_10h33.47.787,facelocalization,2020.1.2,MacIntel,60,-0.01875,0.34375,1,0,0,1.15,28,0,375,375,301,1,7
,,,,,,-0.15625,0.0075,1,0,0,0.667,F,,,,,,-0.285606,0.21915,,lsc,mdzz,22,female,right,mouse,yes,2020-12-12_10h33.47.787,facelocalization,2020.1.2,MacIntel,60,-0.29375,0.24625,1,0,0,1.118,31,0,376,376,355,1,8
,,,,,,0.15,0.005,1,0,0,0.517,M,,,,,,-0.254556,-0.254556,,lsc,mdzz,22,female,right,mouse,yes,2020-12-12_10h33.47.787,facelocalization,2020.1.2,MacIntel,60,-0.23875,-0.245,1,0,0,1.083,8,0,377,377,78,1,2
,,,,,,0.125,-0.02125,1,0,0,0.566,M,,,,,,0.332586,0.137754,,lsc,mdzz,22,female,right,mouse,yes,2020-12-12_10h33.47.787,facelocalization,2020.1.2,MacIntel,60,0.39875,0.1025,1,0,0,0.901,26,0,378,378,291,1,7
,,,,,,-0.1375,-0.01875,1,0,0,0.55,F,,,,,,-0.31176,-0.18,,lsc,mdzz,22,female,right,mouse,yes,2020-12-12_10h33.47.787,facelocalization,2020.1.2,MacIntel,60,-0.30125,-0.165,1,0,0,1.066,14,0,379,379,172,1,4
,,,,,,-0.15,0.00625,1,0,0,0.6,F,,,,,,0.04698,0.356904,,lsc,mdzz,22,female,right,mouse,yes,2020-12-12_10h33.47.787,facelocalization,2020.1.2,MacIntel,60,0.08,0.2775,1,0,0,0.984,12,0,380,380,107,1,3
,,,,,,0.1525,-0.00625,1,0,0,0.599,M,,,,,,0.137754,0.332586,,lsc,mdzz,22,female,right,mouse,yes,2020-12-12_10h33.47.787,facelocalization,2020.1.2,MacIntel,60,0.1725,0.2725,1,0,0,1.017,9,0,381,381,105,1,3
,,,,,,0.17125,0.01125,1,0,0,0.467,M,,,,,,-0.356904,-0.04698,,lsc,mdzz,22,female,right,mouse,yes,2020-12-12_10h33.47.787,facelocalization,2020.1.2,MacIntel,60,-0.31375,-0.02875,1,0,0,1.267,3,0,382,382,25,1,1
,,,,,,0.1775,-0.0025,1,0,0,0.517,M,,,,,,-0.347724,-0.093168,,lsc,mdzz,22,female,right,mouse,yes,2020-12-12_10h33.47.787,facelocalization,2020.1.2,MacIntel,60,-0.33,-0.09,1,0,0,1.184,12,0,383,383,122,1,3
,,,,,,0.135,-0.00375,1,0,0,0.6,M,,,,,,0.347724,0.093168,,lsc,mdzz,22,female,right,mouse,yes,2020-12-12_10h33.47.787,facelocalization,2020.1.2,MacIntel,60,0.4775,0.1625,1,0,0,1.284,6,1,0,384,50,1,2
,,,,,,0.14625,-0.005,1,0,0,0.7,M,,,,,,0.356904,0.04698,,lsc,mdzz,22,female,right,mouse,yes,2020-12-12_10h33.47.787,facelocalization,2020.1.2,MacIntel,60,0.3975,0.02625,1,0,0,0.9,5,1,1,385,49,1,2
,,,,,,0.15375,0.00125,1,0,0,0.733,M,,,,,,0.356904,-0.04698,,lsc,mdzz,22,female,right,mouse,yes,2020-12-12_10h33.47.787,facelocalization,2020.1.2,MacIntel,60,0.36,-0.04625,1,0,0,0.883,28,1,2,386,335,1,7
,,,,,,-0.15125,-0.00125,1,0,0,0.617,F,,,,,,-0.332586,0.137754,,lsc,mdzz,22,female,right,mouse,yes,2020-12-12_10h33.47.787,facelocalization,2020.1.2,MacIntel,60,-0.31875,0.1575,1,0,0,1.2,17,1,3,387,213,1,5
,,,,,,-0.15125,-0.00625,1,0,0,0.85,F,,,,,,0.093168,-0.347724,,lsc,mdzz,22,female,right,mouse,yes,2020-12-12_10h33.47.787,facelocalization,2020.1.2,MacIntel,60,0.1375,-0.34875,1,0,0,0.983,12,1,4,388,134,1,3
,,,,,,-0.15625,0.01375,1,0,0,0.551,F,,,,,,-0.04698,-0.356904,,lsc,mdzz,22,female,right,mouse,yes,2020-12-12_10h33.47.787,facelocalization,2020.1.2,MacIntel,60,0.00125,-0.38375,1,0,0,1.048,20,1,5,389,227,1,5
,,,,,,0.14125,-0.00375,1,0,0,0.617,M,,,,,,0.285606,0.21915,,lsc,mdzz,22,female,right,mouse,yes,2020-12-12_10h33.47.787,facelocalization,2020.1.2,MacIntel,60,0.39,0.26625,1,0,0,0.767,27,1,6,390,293,1,7
,,,,,,0.1375,0.00625,1,0,0,0.6,M,,,,,,0.093168,-0.347724,,lsc,mdzz,22,female,right,mouse,yes,2020-12-12_10h33.47.787,facelocalization,2020.1.2,MacIntel,60,0.08,-0.3725,1,0,0,0.933,2,1,7,391,38,1,1
,,,,,,0.165,0.0125,1,0,0,0.65,M,,,,,,-0.093168,-0.347724,,lsc,mdzz,22,female,right,mouse,yes,2020-12-12_10h33.47.787,facelocalization,2020.1.2,MacIntel,60,-0.06375,-0.36875,1,0,0,1.035,30,1,8,392,370,1,8
,,,,,,-0.1375,-0.015,1,0,0,0.767,F,,,,,,0.18,0.31176,,lsc,mdzz,22,female,right,mouse,yes,2020-12-12_10h33.47.787,facelocalization,2020.1.2,MacIntel,60,0.2175,0.275,1,0,0,0.967,19,1,9,393,200,1,5
,,,,,,-0.14875,-0.00625,1,0,0,0.817,F,,,,,,0,0.36,,lsc,mdzz,22,female,right,mouse,yes,2020-12-12_10h33.47.787,facelocalization,2020.1.2,MacIntel,60,0.05875,0.33625,1,0,0,1.167,16,1,10,394,156,1,4
,,,,,,-0.15875,0.0075,1,0,0,0.633,F,,,,,,-0.285606,0.21915,,lsc,mdzz,22,female,right,mouse,yes,2020-12-12_10h33.47.787,facelocalization,2020.1.2,MacIntel,60,-0.31625,0.25,1,0,0,0.884,29,1,11,395,355,1,8
,,,,,,0.155,0.015,1,0,0,0.467,M,,,,,,0.332586,-0.137754,,lsc,mdzz,22,female,right,mouse,yes,2020-12-12_10h33.47.787,facelocalization,2020.1.2,MacIntel,60,0.3625,-0.15,1,0,0,0.95,23,1,12,396,285,1,6
,,,,,,0.145,-0.005,1,0,0,0.617,M,,,,,,-0.356904,-0.04698,,lsc,mdzz,22,female,right,mouse,yes,2020-12-12_10h33.47.787,facelocalization,2020.1.2,MacIntel,60,-0.3575,-0.025,1,0,0,0.95,16,1,13,397,169,1,4
,,,,,,0.165,-0.00375,1,0,0,0.666,M,,,,,,-0.347724,-0.093168,,lsc,mdzz,22,female,right,mouse,yes,2020-12-12_10h33.47.787,facelocalization,2020.1.2,MacIntel,60,-0.3675,-0.07625,1,0,0,1.184,22,1,14,398,266,1,6
,,,,,,0.17625,-0.0075,1,0,0,0.483,M,,,,,,-0.31176,-0.18,,lsc,mdzz,22,female,right,mouse,yes,2020-12-12_10h33.47.787,facelocalization,2020.1.2,MacIntel,60,-0.315,-0.18,1,0,0,1,21,1,15,399,268,1,6
,,,,,,0.1475,-0.0125,1,0,0,0.433,M,,,,,,0.285606,-0.21915,,lsc,mdzz,22,female,right,mouse,yes,2020-12-12_10h33.47.787,facelocalization,2020.1.2,MacIntel,60,0.32,-0.21625,1,0,0,0.75,9,1,16,400,139,1,3
,,,,,,-0.165,0.0175,1,0,0,0.634,F,,,,,,-0.137754,-0.332586,,lsc,mdzz,22,female,right,mouse,yes,2020-12-12_10h33.47.787,facelocalization,2020.1.2,MacIntel,60,-0.1125,-0.33375,1,0,0,1.1,16,1,17,401,177,1,4
,,,,,,0.15,0.00625,1,0,0,0.833,M,,,,,,-0.332586,0.137754,,lsc,mdzz,22,female,right,mouse,yes,2020-12-12_10h33.47.787,facelocalization,2020.1.2,MacIntel,60,-0.385,0.14375,1,0,0,0.917,22,1,18,402,261,1,6
,,,,,,0.15375,-0.01125,1,0,0,0.584,M,,,,,,0.137754,-0.332586,,lsc,mdzz,22,female,right,mouse,yes,2020-12-12_10h33.47.787,facelocalization,2020.1.2,MacIntel,60,0.15125,-0.355,1,0,0,0.916,21,1,19,403,279,1,6
,,,,,,-0.1425,-0.00625,1,0,0,0.516,F,,,,,,-0.285606,-0.21915,,lsc,mdzz,22,female,right,mouse,yes,2020-12-12_10h33.47.787,facelocalization,2020.1.2,MacIntel,60,-0.28875,-0.22625,1,0,0,1.101,17,1,20,404,221,1,5
,,,,,,0.1175,-0.03875,1,0,0,0.517,M,,,,,,0.21915,0.285606,,lsc,mdzz,22,female,right,mouse,yes,2020-12-12_10h33.47.787,facelocalization,2020.1.2,MacIntel,60,0.23625,0.2475,1,0,0,0.884,32,1,21,405,343,1,8
,,,,,,0.1475,0.005,1,0,0,0.634,M,,,,,,-0.137754,0.332586,,lsc,mdzz,22,female,right,mouse,yes,2020-12-12_10h33.47.787,facelocalization,2020.1.2,MacIntel,60,-0.12875,0.32125,1,0,0,0.867,10,1,22,406,111,1,3
,,,,,,0.14875,-0.01375,1,0,0,0.749,M,,,,,,0.137754,0.332586,,lsc,mdzz,22,female,right,mouse,yes,2020-12-12_10h33.47.787,facelocalization,2020.1.2,MacIntel,60,0.15375,0.3175,1,0,0,0.967,5,1,23,407,57,1,2
,,,,,,0.13,0.005,1,0,0,0.549,M,,,,,,-0.21915,-0.285606,,lsc,mdzz,22,female,right,mouse,yes,2020-12-12_10h33.47.787,facelocalization,2020.1.2,MacIntel,60,-0.1775,-0.25375,1,0,0,0.916,2,1,24,408,31,1,1
,,,,,,-0.11125,0.01625,1,0,0,0.633,F,,,,,,-0.04698,0.356904,,lsc,mdzz,22,female,right,mouse,yes,2020-12-12_10h33.47.787,facelocalization,2020.1.2,MacIntel,60,-0.0325,0.355,1,0,0,0.867,23,1,25,409,253,1,6
,,,,,,0.16625,-0.0025,1,0,0,0.616,M,,,,,,0.18,0.31176,,lsc,mdzz,22,female,right,mouse,yes,2020-12-12_10h33.47.787,facelocalization,2020.1.2,MacIntel,60,0.19875,0.3,1,0,0,0.966,27,1,26,410,296,1,7
,,,,,,-0.14625,0.00125,1,0,0,0.5,F,,,,,,0.093168,0.347724,,lsc,mdzz,22,female,right,mouse,yes,2020-12-12_10h33.47.787,facelocalization,2020.1.2,MacIntel,60,0.135,0.33875,1,0,0,1.117,17,1,27,411,202,1,5
,,,,,,-0.15625,0.0175,1,0,0,0.601,F,,,,,,-0.093168,0.347724,,lsc,mdzz,22,female,right,mouse,yes,2020-12-12_10h33.47.787,facelocalization,2020.1.2,MacIntel,60,-0.08125,0.32375,1,0,0,0.933,13,1,28,412,158,1,4
,,,,,,0.17,0.01125,1,0,0,0.533,M,,,,,,-0.21915,-0.285606,,lsc,mdzz,22,female,right,mouse,yes,2020-12-12_10h33.47.787,facelocalization,2020.1.2,MacIntel,60,-0.23625,-0.2875,1,0,0,0.882,15,1,29,413,175,1,4
,,,,,,0.1675,-0.01125,1,0,0,0.6,M,,,,,,0.137754,0.332586,,lsc,mdzz,22,female,right,mouse,yes,2020-12-12_10h33.47.787,facelocalization,2020.1.2,MacIntel,60,0.17375,0.3225,1,0,0,0.884,11,1,30,414,105,1,3
,,,,,,-0.13625,0.01125,1,0,0,0.533,F,,,,,,-0.347724,-0.093168,,lsc,mdzz,22,female,right,mouse,yes,2020-12-12_10h33.47.787,facelocalization,2020.1.2,MacIntel,60,-0.345,-0.08125,1,0,0,0.918,14,1,31,415,170,1,4
,,,,,,0.1625,0.005,1,0,0,0.517,M,,,,,,-0.21915,-0.285606,,lsc,mdzz,22,female,right,mouse,yes,2020-12-12_10h33.47.787,facelocalization,2020.1.2,MacIntel,60,-0.2175,-0.27,1,0,0,0.85,5,1,32,416,79,1,2
,,,,,,0.145,0.01875,1,0,0,0.466,M,,,,,,0.347724,-0.093168,,lsc,mdzz,22,female,right,mouse,yes,2020-12-12_10h33.47.787,facelocalization,2020.1.2,MacIntel,60,0.37875,-0.075,1,0,0,0.734,22,1,33,417,286,1,6
,,,,,,0.17875,0.025,1,0,0,0.5,M,,,,,,-0.254556,-0.254556,,lsc,mdzz,22,female,right,mouse,yes,2020-12-12_10h33.47.787,facelocalization,2020.1.2,MacIntel,60,-0.23875,-0.245,1,0,0,0.85,10,1,34,418,126,1,3
,,,,,,0.17375,-0.005,1,0,0,0.633,M,,,,,,0.356904,-0.04698,,lsc,mdzz,22,female,right,mouse,yes,2020-12-12_10h33.47.787,facelocalization,2020.1.2,MacIntel,60,0.3825,-0.06875,1,0,0,0.884,2,1,35,419,47,1,1
,,,,,,0.17,-0.005,1,0,0,0.549,M,,,,,,0.21915,0.285606,,lsc,mdzz,22,female,right,mouse,yes,2020-12-12_10h33.47.787,facelocalization,2020.1.2,MacIntel,60,0.2525,0.275,1,0,0,1.05,6,1,36,420,55,1,2
,,,,,,-0.13125,-0.01375,1,0,0,0.566,F,,,,,,0.18,-0.31176,,lsc,mdzz,22,female,right,mouse,yes,2020-12-12_10h33.47.787,facelocalization,2020.1.2,MacIntel,60,0.18875,-0.33625,1,0,0,0.982,28,1,37,421,328,1,7
,,,,,,-0.165,0,1,0,0,0.533,F,,,,,,0.21915,0.285606,,lsc,mdzz,22,female,right,mouse,yes,2020-12-12_10h33.47.787,facelocalization,2020.1.2,MacIntel,60,0.26875,0.28125,1,0,0,1.051,17,1,38,422,199,1,5
,,,,,,-0.1375,-0.00375,1,0,0,0.634,F,,,,,,-0.04698,0.356904,,lsc,mdzz,22,female,right,mouse,yes,2020-12-12_10h33.47.787,facelocalization,2020.1.2,MacIntel,60,0.00125,0.33,1,0,0,1.184,14,1,39,423,157,1,4
,,,,,,-0.1525,0.01,1,0,0,0.616,F,,,,,,-0.285606,0.21915,,lsc,mdzz,22,female,right,mouse,yes,2020-12-12_10h33.47.787,facelocalization,2020.1.2,MacIntel,60,-0.28875,0.2125,1,0,0,0.933,15,1,40,424,163,1,4
,,,,,,-0.15125,0.025,1,0,0,0.517,F,,,,,,0.254556,-0.254556,,lsc,mdzz,22,female,right,mouse,yes,2020-12-12_10h33.47.787,facelocalization,2020.1.2,MacIntel,60,0.2325,-0.27375,1,0,0,0.818,25,1,41,425,330,1,7
,,,,,,-0.12875,0.0225,1,0,0,0.85,F,,,,,,0,-0.36,,lsc,mdzz,22,female,right,mouse,yes,2020-12-12_10h33.47.787,facelocalization,2020.1.2,MacIntel,60,0.00125,-0.37125,1,0,0,0.851,28,1,42,426,324,1,7
,,,,,,0.12625,-0.01625,1,0,0,0.55,M,,,,,,-0.254556,0.254556,,lsc,mdzz,22,female,right,mouse,yes,2020-12-12_10h33.47.787,facelocalization,2020.1.2,MacIntel,60,-0.26,0.27,1,0,0,0.917,7,1,43,427,66,1,2
,,,,,,0.1575,-0.0075,1,0,0,0.6,M,,,,,,-0.254556,0.254556,,lsc,mdzz,22,female,right,mouse,yes,2020-12-12_10h33.47.787,facelocalization,2020.1.2,MacIntel,60,-0.24375,0.27875,1,0,0,1.017,25,1,44,428,306,1,7
,,,,,,0.1375,-0.0025,1,0,0,0.65,M,,,,,,-0.356904,-0.04698,,lsc,mdzz,22,female,right,mouse,yes,2020-12-12_10h33.47.787,facelocalization,2020.1.2,MacIntel,60,-0.34,-0.02375,1,0,0,1.033,8,1,45,429,73,1,2
,,,,,,-0.12,0.00875,1,0,0,0.617,F,,,,,,0.137754,-0.332586,,lsc,mdzz,22,female,right,mouse,yes,2020-12-12_10h33.47.787,facelocalization,2020.1.2,MacIntel,60,0.15375,-0.34,1,0,0,1,1,1,46,430,39,1,1
,,,,,,0.1525,0.00125,1,0,0,0.599,M,,,,,,0.093168,0.347724,,lsc,mdzz,22,female,right,mouse,yes,2020-12-12_10h33.47.787,facelocalization,2020.1.2,MacIntel,60,0.11125,0.32625,1,0,0,0.949,6,1,47,431,58,1,2
,,,,,,-0.1425,0.01625,1,0,0,0.617,F,,,,,,0.332586,-0.137754,,lsc,mdzz,22,female,right,mouse,yes,2020-12-12_10h33.47.787,facelocalization,2020.1.2,MacIntel,60,0.31375,-0.15,1,0,0,0.817,13,1,48,432,189,1,4
,,,,,,0.13875,0.015,1,0,0,0.7,M,,,,,,-0.347724,-0.093168,,lsc,mdzz,22,female,right,mouse,yes,2020-12-12_10h33.47.787,facelocalization,2020.1.2,MacIntel,60,-0.3425,-0.0725,1,0,0,0.9,12,1,49,433,122,1,3
,,,,,,0.17625,0.025,1,0,0,0.6,M,,,,,,-0.18,-0.31176,,lsc,mdzz,22,female,right,mouse,yes,2020-12-12_10h33.47.787,facelocalization,2020.1.2,MacIntel,60,-0.155,-0.30875,1,0,0,0.917,7,1,50,434,80,1,2
,,,,,,0.15375,0.00625,1,0,0,0.651,M,,,,,,-0.31176,-0.18,,lsc,mdzz,22,female,right,mouse,yes,2020-12-12_10h33.47.787,facelocalization,2020.1.2,MacIntel,60,-0.30625,-0.1675,1,0,0,1.066,27,1,51,435,316,1,7
,,,,,,-0.135,-0.00625,1,0,0,0.567,F,,,,,,0.332586,0.137754,,lsc,mdzz,22,female,right,mouse,yes,2020-12-12_10h33.47.787,facelocalization,2020.1.2,MacIntel,60,0.35625,0.10375,1,0,0,0.95,1,1,52,436,3,1,1
,,,,,,0.14875,-0.00375,1,0,0,0.6,M,,,,,,0.093168,0.347724,,lsc,mdzz,22,female,right,mouse,yes,2020-12-12_10h33.47.787,facelocalization,2020.1.2,MacIntel,60,0.1125,0.33,1,0,0,1.168,16,1,53,437,154,1,4
,,,,,,-0.155,0.0025,1,0,0,0.75,F,,,,,,0.254556,0.254556,,lsc,mdzz,22,female,right,mouse,yes,2020-12-12_10h33.47.787,facelocalization,2020.1.2,MacIntel,60,0.31125,0.2325,1,0,0,0.883,17,1,54,438,198,1,5
,,,,,,0.155,-0.0025,1,0,0,0.568,M,,,,,,0.04698,-0.356904,,lsc,mdzz,22,female,right,mouse,yes,2020-12-12_10h33.47.787,facelocalization,2020.1.2,MacIntel,60,0.04625,-0.35,1,0,0,0.916,7,1,55,439,85,1,2
,,,,,,0.1425,-0.00375,1,0,0,0.468,M,,,,,,0.285606,0.21915,,lsc,mdzz,22,female,right,mouse,yes,2020-12-12_10h33.47.787,facelocalization,2020.1.2,MacIntel,60,0.32,0.2025,1,0,0,0.984,22,1,56,440,245,1,6
,,,,,,-0.15375,-0.005,1,0,0,0.534,F,,,,,,0.137754,0.332586,,lsc,mdzz,22,female,right,mouse,yes,2020-12-12_10h33.47.787,facelocalization,2020.1.2,MacIntel,60,0.14875,0.30375,1,0,0,0.833,14,1,57,441,153,1,4
,,,,,,0.15125,0,1,0,0,0.551,M,,,,,,0.31176,-0.18,,lsc,mdzz,22,female,right,mouse,yes,2020-12-12_10h33.47.787,facelocalization,2020.1.2,MacIntel,60,0.34625,-0.21125,1,0,0,0.866,7,1,58,442,92,1,2
,,,,,,0.12875,-0.00125,1,0,0,0.684,M,,,,,,-0.285606,0.21915,,lsc,mdzz,22,female,right,mouse,yes,2020-12-12_10h33.47.787,facelocalization,2020.1.2,MacIntel,60,-0.28125,0.2375,1,0,0,0.883,21,1,59,443,259,1,6
,,,,,,0.14,0.005,1,0,0,0.5,M,,,,,,0.093168,0.347724,,lsc,mdzz,22,female,right,mouse,yes,2020-12-12_10h33.47.787,facelocalization,2020.1.2,MacIntel,60,0.12,0.35,1,0,0,0.85,31,1,60,444,346,1,8
,,,,,,0.1225,-0.02125,1,0,0,0.85,M,,,,,,-0.18,0.31176,,lsc,mdzz,22,female,right,mouse,yes,2020-12-12_10h33.47.787,facelocalization,2020.1.2,MacIntel,60,-0.21125,0.30125,1,0,0,0.784,21,1,61,445,256,1,6
,,,,,,0.14875,0.0225,1,0,0,0.466,M,,,,,,-0.04698,-0.356904,,lsc,mdzz,22,female,right,mouse,yes,2020-12-12_10h33.47.787,facelocalization,2020.1.2,MacIntel,60,-0.03,-0.3425,1,0,0,1.034,6,1,62,446,83,1,2
,,,,,,-0.1425,0.00375,1,0,0,1.034,F,,,,,,-0.31176,-0.18,,lsc,mdzz,22,female,right,mouse,yes,2020-12-12_10h33.47.787,facelocalization,2020.1.2,MacIntel,60,-0.295,-0.15125,1,0,0,1.034,16,1,63,447,172,1,4
,,,,,,-0.165,-0.0025,1,0,0,0.467,F,,,,,,-0.332586,0.137754,,lsc,mdzz,22,female,right,mouse,yes,2020-12-12_10h33.47.787,facelocalization,2020.1.2,MacIntel,60,-0.3125,0.13375,1,0,0,1.134,14,1,64,448,165,1,4
,,,,,,0.1675,-0.00875,1,0,0,0.483,M,,,,,,-0.356904,-0.04698,,lsc,mdzz,22,female,right,mouse,yes,2020-12-12_10h33.47.787,facelocalization,2020.1.2,MacIntel,60,-0.34125,-0.05125,1,0,0,1.051,12,1,65,449,121,1,3
,,,,,,0.14875,-0.00625,1,0,0,0.517,M,,,,,,0.332586,-0.137754,,lsc,mdzz,22,female,right,mouse,yes,2020-12-12_10h33.47.787,facelocalization,2020.1.2,MacIntel,60,0.34,-0.14125,1,0,0,0.8,27,1,66,450,333,1,7
,,,,,,0.135,-0.0025,1,0,0,0.533,M,,,,,,0.356904,-0.04698,,lsc,mdzz,22,female,right,mouse,yes,2020-12-12_10h33.47.787,facelocalization,2020.1.2,MacIntel,60,0.40625,-0.05375,1,0,0,0.968,22,1,67,451,287,1,6
,,,,,,0.15625,0.015,1,0,0,0.568,M,,,,,,0.18,-0.31176,,lsc,mdzz,22,female,right,mouse,yes,2020-12-12_10h33.47.787,facelocalization,2020.1.2,MacIntel,60,0.21,-0.32125,1,0,0,0.866,6,1,68,452,88,1,2
,,,,,,0.14125,-0.03125,1,0,0,0.633,M,,,,,,-0.21915,0.285606,,lsc,mdzz,22,female,right,mouse,yes,2020-12-12_10h33.47.787,facelocalization,2020.1.2,MacIntel,60,-0.215,0.29875,1,0,0,1.017,18,1,69,453,209,1,5
,,,,,,-0.1775,0.005,1,0,0,0.733,F,,,,,,0.356904,-0.04698,,lsc,mdzz,22,female,right,mouse,yes,2020-12-12_10h33.47.787,facelocalization,2020.1.2,MacIntel,60,0.33375,-0.05,1,0,0,1.117,18,1,70,454,239,1,5
,,,,,,0.1575,-0.0175,1,0,0,0.483,M,,,,,,0.254556,0.254556,,lsc,mdzz,22,female,right,mouse,yes,2020-12-12_10h33.47.787,facelocalization,2020.1.2,MacIntel,60,0.27625,0.21375,1,0,0,0.983,7,1,71,455,54,1,2
,,,,,,-0.11625,0.00125,1,0,0,0.6,F,,,,,,0,0.36,,lsc,mdzz,22,female,right,mouse,yes,2020-12-12_10h33.47.787,facelocalization,2020.1.2,MacIntel,60,0.02125,0.35,1,0,0,0.967,12,1,72,456,108,1,3
,,,,,,0.15,-0.02625,1,0,0,0.568,M,,,,,,-0.347724,0.093168,,lsc,mdzz,22,female,right,mouse,yes,2020-12-12_10h33.47.787,facelocalization,2020.1.2,MacIntel,60,-0.36375,0.095,1,0,0,0.999,26,1,73,457,310,1,7
,,,,,,0.15,0.0125,1,0,0,0.467,M,,,,,,-0.093168,-0.347724,,lsc,mdzz,22,female,right,mouse,yes,2020-12-12_10h33.47.787,facelocalization,2020.1.2,MacIntel,60,-0.09125,-0.355,1,0,0,1.1,10,1,74,458,130,1,3
,,,,,,-0.13625,-0.015,1,0,0,0.517,F,,,,,,0.31176,0.18,,lsc,mdzz,22,female,right,mouse,yes,2020-12-12_10h33.47.787,facelocalization,2020.1.2,MacIntel,60,0.31875,0.12625,1,0,0,1.001,28,1,75,459,292,1,7
,,,,,,-0.16625,-0.005,1,0,0,0.634,F,,,,,,0,-0.36,,lsc,mdzz,22,female,right,mouse,yes,2020-12-12_10h33.47.787,facelocalization,2020.1.2,MacIntel,60,-0.0025,-0.38,1,0,0,1.015,30,1,76,460,372,1,8
,,,,,,0.14,0.02125,1,0,0,0.583,M,,,,,,-0.36,0,,lsc,mdzz,22,female,right,mouse,yes,2020-12-12_10h33.47.787,facelocalization,2020.1.2,MacIntel,60,-0.3975,-0.005,1,0,0,1.033,23,1,77,461,264,1,6
,,,,,,0.22125,-0.01875,1,0,0,0.55,M,,,,,,-0.285606,0.21915,,lsc,mdzz,22,female,right,mouse,yes,2020-12-12_10h33.47.787,facelocalization,2020.1.2,MacIntel,60,-0.2925,0.21125,1,0,0,1.001,27,1,78,462,307,1,7
,,,,,,-0.16625,0.01,1,0,0,0.567,F,,,,,,-0.254556,-0.254556,,lsc,mdzz,22,female,right,mouse,yes,2020-12-12_10h33.47.787,facelocalization,2020.1.2,MacIntel,60,-0.2725,-0.23,1,0,0,0.949,20,1,79,463,222,1,5
,,,,,,-0.11625,-0.00875,1,0,0,0.682,F,,,,,,0.093168,-0.347724,,lsc,mdzz,22,female,right,mouse,yes,2020-12-12_10h33.47.787,facelocalization,2020.1.2,MacIntel,60,0.11625,-0.375,1,0,0,0.867,25,1,80,464,326,1,7
,,,,,,0.16125,-0.01,1,0,0,0.6,M,,,,,,0.093168,-0.347724,,lsc,mdzz,22,female,right,mouse,yes,2020-12-12_10h33.47.787,facelocalization,2020.1.2,MacIntel,60,0.085,-0.36125,1,0,0,1.2,24,1,81,465,278,1,6
,,,,,,-0.13875,0.015,1,0,0,0.6,F,,,,,,0.04698,0.356904,,lsc,mdzz,22,female,right,mouse,yes,2020-12-12_10h33.47.787,facelocalization,2020.1.2,MacIntel,60,0.03,0.28375,1,0,0,1.001,19,1,82,466,203,1,5
,,,,,,0.145,0.00875,1,0,0,0.618,M,,,,,,-0.137754,-0.332586,,lsc,mdzz,22,female,right,mouse,yes,2020-12-12_10h33.47.787,facelocalization,2020.1.2,MacIntel,60,-0.08875,-0.3325,1,0,0,0.999,6,1,83,467,81,1,2
,,,,,,0.1225,-0.00125,1,0,0,0.717,M,,,,,,0.332586,0.137754,,lsc,mdzz,22,female,right,mouse,yes,2020-12-12_10h33.47.787,facelocalization,2020.1.2,MacIntel,60,0.34,0.1025,1,0,0,0.766,28,1,84,468,291,1,7
,,,,,,0.13,0.01375,1,0,0,0.818,M,,,,,,-0.347724,-0.093168,,lsc,mdzz,22,female,right,mouse,yes,2020-12-12_10h33.47.787,facelocalization,2020.1.2,MacIntel,60,-0.315,-0.06625,1,0,0,0.933,18,1,85,469,218,1,5
,,,,,,-0.13625,0.01125,1,0,0,0.702,F,,,,,,0.356904,-0.04698,,lsc,mdzz,22,female,right,mouse,yes,2020-12-12_10h33.47.787,facelocalization,2020.1.2,MacIntel,60,0.3475,-0.0375,1,0,0,0.916,32,1,86,470,383,1,8
,,,,,,-0.1575,0.0075,1,0,0,0.567,F,,,,,,-0.137754,0.332586,,lsc,mdzz,22,female,right,mouse,yes,2020-12-12_10h33.47.787,facelocalization,2020.1.2,MacIntel,60,-0.1525,0.26875,1,0,0,0.917,1,1,87,471,15,1,1
,,,,,,0.155,-0.0075,1,0,0,0.534,M,,,,,,0.36,0,,lsc,mdzz,22,female,right,mouse,yes,2020-12-12_10h33.47.787,facelocalization,2020.1.2,MacIntel,60,0.36,-0.005,1,0,0,0.932,10,1,88,472,96,1,3
,,,,,,0.14125,-0.00375,1,0,0,0.583,M,,,,,,0.093168,-0.347724,,lsc,mdzz,22,female,right,mouse,yes,2020-12-12_10h33.47.787,facelocalization,2020.1.2,MacIntel,60,0.10625,-0.34875,1,0,0,0.866,15,1,89,473,182,1,4
,,,,,,-0.16375,0.01125,1,0,0,0.582,F,,,,,,-0.137754,-0.332586,,lsc,mdzz,22,female,right,mouse,yes,2020-12-12_10h33.47.787,facelocalization,2020.1.2,MacIntel,60,-0.10625,-0.3125,1,0,0,0.8,17,1,90,474,225,1,5
,,,,,,0.15625,0.0025,1,0,0,0.602,M,,,,,,-0.31176,-0.18,,lsc,mdzz,22,female,right,mouse,yes,2020-12-12_10h33.47.787,facelocalization,2020.1.2,MacIntel,60,-0.25375,-0.18,1,0,0,0.999,5,1,91,475,76,1,2
,,,,,,-0.1375,-0.02875,1,0,0,0.45,F,,,,,,-0.332586,-0.137754,,lsc,mdzz,22,female,right,mouse,yes,2020-12-12_10h33.47.787,facelocalization,2020.1.2,MacIntel,60,-0.305,-0.1325,1,0,0,1.133,31,1,92,476,363,1,8
,,,,,,-0.15375,0.005,1,0,0,0.684,F,,,,,,0.254556,0.254556,,lsc,mdzz,22,female,right,mouse,yes,2020-12-12_10h33.47.787,facelocalization,2020.1.2,MacIntel,60,0.30375,0.20625,1,0,0,1.016,15,1,93,477,150,1,4
,,,,,,-0.17,-0.01125,1,0,0,0.516,F,,,,,,-0.285606,-0.21915,,lsc,mdzz,22,female,right,mouse,yes,2020-12-12_10h33.47.787,facelocalization,2020.1.2,MacIntel,60,-0.3075,-0.2175,1,0,0,0.949,13,1,94,478,173,1,4
,,,,,,0.12625,0.0175,1,0,0,0.767,M,,,,,,-0.347724,0.093168,,lsc,mdzz,22,female,right,mouse,yes,2020-12-12_10h33.47.787,facelocalization,2020.1.2,MacIntel,60,-0.35375,0.0775,1,0,0,1.067,16,1,95,479,166,1,4
,,,,,,-0.15125,-0.005,1,0,0,0.85,F,,,,,,0.18,0.31176,,lsc,mdzz,22,female,right,mouse,yes,2020-12-12_10h33.47.787,facelocalization,2020.1.2,MacIntel,60,0.20125,0.285,1,0,0,1.048,14,1,96,480,152,1,4
,,,,,,-0.165,-0.00875,1,0,0,0.583,F,,,,,,-0.254556,0.254556,,lsc,mdzz,22,female,right,mouse,yes,2020-12-12_10h33.47.787,facelocalization,2020.1.2,MacIntel,60,-0.28625,0.2475,1,0,0,1.033,23,1,97,481,258,1,6
,,,,,,0.12375,-0.0275,1,0,0,0.584,M,,,,,,0.093168,0.347724,,lsc,mdzz,22,female,right,mouse,yes,2020-12-12_10h33.47.787,facelocalization,2020.1.2,MacIntel,60,0.06625,0.3425,1,0,0,0.95,24,1,98,482,250,1,6
,,,,,,-0.13125,-0.0075,1,0,0,0.5,F,,,,,,0.04698,-0.356904,,lsc,mdzz,22,female,right,mouse,yes,2020-12-12_10h33.47.787,facelocalization,2020.1.2,MacIntel,60,0.0325,-0.36375,1,0,0,0.917,23,1,99,483,277,1,6
