mouse_2.x,mouse_2.y,mouse_2.leftButton,mouse_2.midButton,mouse_2.rightButton,mouse_2.time,mouse_gender_task.x,mouse_gender_task.y,mouse_gender_task.leftButton,mouse_gender_task.midButton,mouse_gender_task.rightButton,mouse_gender_task.time,mouse_gender_task.clicked_name,demo.thisRepN,demo.thisTrialN,demo.thisN,demo.thisIndex,demo.ran,coex,coey,imageFile,participant,Student ID number (this is for RPP purpose only),Age,Gender,Handedness,"In this experiment, you need to constantly adjust the position of your cursor. what tool are your using to complete this experiment (mouse, trackpad,etc)?",Do you have normal or correct to normal vision?,date,expName,psychopyVersion,OS,frameRate,mouse.x,mouse.y,mouse.leftButton,mouse.midButton,mouse.rightButton,mouse.time,imageNum,trials.thisRepN,trials.thisTrialN,trials.thisN,trials.thisIndex,trials.ran,cond
-0.104682617,0.340546875,1,0,0,1.167385,0.165800781,0.025151367,1,0,0,1.1174,M,0,0,0,5,1,-0.093168,0.347724,21.bmp,lsc,,22,female,right,mouse,yes,2021-04-08_10h38.02.913,facelocalization,2020.1.2,MacIntel,60,,,,,,,,,,,,,
-0.356791992,0.181923828,1,0,0,1.486065,0.154760742,-0.005234375,1,0,0,0.750535,M,0,1,1,7,1,-0.332586,0.137754,29.bmp,lsc,,22,female,right,mouse,yes,2021-04-08_10h38.02.913,facelocalization,2020.1.2,MacIntel,60,,,,,,,,,,,,,
0.318476563,-0.264707031,1,0,0,2.0998,-0.129399414,0.000698242,1,0,0,0.9456,F,0,2,2,6,1,0.285606,-0.21915,25.bmp,lsc,,22,female,right,mouse,yes,2021-04-08_10h38.02.913,facelocalization,2020.1.2,MacIntel,60,,,,,,,,,,,,,
0.277070313,-0.266723633,1,0,0,1.384525,-0.170961914,0.007363281,1,0,0,0.632585,F,0,3,3,0,1,0.254556,-0.254556,1.bmp,lsc,,22,female,right,mouse,yes,2021-04-08_10h38.02.913,facelocalization,2020.1.2,MacIntel,60,,,,,,,,,,,,,
-0.188554688,-0.294838867,1,0,0,1.233675,0.167529297,0.010258789,1,0,0,0.499815,M,0,4,4,1,1,-0.21915,-0.285606,5.bmp,lsc,,22,female,right,mouse,yes,2021-04-08_10h38.02.913,facelocalization,2020.1.2,MacIntel,60,,,,,,,,,,,,,
0.166791992,0.357314453,1,0,0,1.35032,-0.148686523,-0.004414062,1,0,0,0.55046,F,0,5,5,3,1,0.137754,0.332586,13.bmp,lsc,,22,female,right,mouse,yes,2021-04-08_10h38.02.913,facelocalization,2020.1.2,MacIntel,60,,,,,,,,,,,,,
0.267192383,0.207475586,1,0,0,1.147725,-0.162890625,-0.016777344,1,0,0,0.650855,F,0,6,6,4,1,0.285606,0.21915,17.bmp,lsc,,22,female,right,mouse,yes,2021-04-08_10h38.02.913,facelocalization,2020.1.2,MacIntel,60,,,,,,,,,,,,,
-0.278935547,0.234902344,1,0,0,1.11655,0.143569336,-0.002016602,1,0,0,0.617145,M,0,7,7,2,1,-0.285606,0.21915,9.bmp,lsc,,22,female,right,mouse,yes,2021-04-08_10h38.02.913,facelocalization,2020.1.2,MacIntel,60,,,,,,,,,,,,,
,,,,,,-0.148173828,0.025834961,1,0,0,0.613545,F,,,,,,0.31176,0.18,,lsc,,22,female,right,mouse,yes,2021-04-08_10h38.02.913,facelocalization,2020.1.2,MacIntel,60,0.336650391,0.15637207,1,0,0,1.085905,24,0,0,0,244,1,6
,,,,,,-0.148891602,0.004931641,1,0,0,0.634405,F,,,,,,-0.332586,-0.137754,,lsc,,22,female,right,mouse,yes,2021-04-08_10h38.02.913,facelocalization,2020.1.2,MacIntel,60,-0.330761719,-0.126542969,1,0,0,1.062455,16,0,1,1,171,1,4
,,,,,,0.146713867,-0.007265625,1,0,0,0.633875,M,,,,,,-0.04698,0.356904,,lsc,,22,female,right,mouse,yes,2021-04-08_10h38.02.913,facelocalization,2020.1.2,MacIntel,60,-0.04421875,0.358891602,1,0,0,1.267545,6,0,2,2,61,1,2
,,,,,,0.209609375,0.017871094,1,0,0,0.96845,M,,,,,,0.332586,-0.137754,,lsc,,22,female,right,mouse,yes,2021-04-08_10h38.02.913,facelocalization,2020.1.2,MacIntel,60,0.388945312,-0.181738281,1,0,0,1.033915,19,0,3,3,237,1,5
,,,,,,-0.149707031,-0.005576172,1,0,0,0.633225,F,,,,,,0.332586,0.137754,,lsc,,22,female,right,mouse,yes,2021-04-08_10h38.02.913,facelocalization,2020.1.2,MacIntel,60,0.376152344,0.132133789,1,0,0,1.032145,15,0,4,4,147,1,4
,,,,,,-0.130551758,0.005625,1,0,0,0.666485,F,,,,,,0.04698,0.356904,,lsc,,22,female,right,mouse,yes,2021-04-08_10h38.02.913,facelocalization,2020.1.2,MacIntel,60,0.039326172,0.365390625,1,0,0,1.01672,17,0,5,5,203,1,5
,,,,,,-0.125317383,-0.003129883,1,0,0,0.56652,F,,,,,,0.04698,-0.356904,,lsc,,22,female,right,mouse,yes,2021-04-08_10h38.02.913,facelocalization,2020.1.2,MacIntel,60,0.070400391,-0.370878906,1,0,0,0.91793,32,0,6,6,373,1,8
,,,,,,-0.156010742,-0.009345703,1,0,0,0.400135,F,,,,,,-0.04698,-0.356904,,lsc,,22,female,right,mouse,yes,2021-04-08_10h38.02.913,facelocalization,2020.1.2,MacIntel,60,-0.042216797,-0.351533203,1,0,0,0.950085,14,0,7,7,179,1,4
,,,,,,-0.155878906,0.01574707,1,0,0,0.485325,F,,,,,,-0.36,0,,lsc,,22,female,right,mouse,yes,2021-04-08_10h38.02.913,facelocalization,2020.1.2,MacIntel,60,-0.360732422,0.003305664,1,0,0,0.98259,13,0,8,8,168,1,4
,,,,,,0.161630859,-0.023139648,1,0,0,0.633575,M,,,,,,-0.21915,0.285606,,lsc,,22,female,right,mouse,yes,2021-04-08_10h38.02.913,facelocalization,2020.1.2,MacIntel,60,-0.19125,0.284072266,1,0,0,1.032695,12,0,9,9,113,1,3
,,,,,,0.140517578,-0.020751953,1,0,0,0.41841,M,,,,,,-0.18,-0.31176,,lsc,,22,female,right,mouse,yes,2021-04-08_10h38.02.913,facelocalization,2020.1.2,MacIntel,60,-0.131606445,-0.334448242,1,0,0,0.995535,8,0,10,10,80,1,2
,,,,,,0.158041992,-0.007553711,1,0,0,0.56579,M,,,,,,-0.093168,-0.347724,,lsc,,22,female,right,mouse,yes,2021-04-08_10h38.02.913,facelocalization,2020.1.2,MacIntel,60,-0.093510742,-0.377182617,1,0,0,1.068395,10,0,11,11,130,1,3
,,,,,,-0.158432617,0.010512695,1,0,0,0.535615,F,,,,,,0.21915,-0.285606,,lsc,,22,female,right,mouse,yes,2021-04-08_10h38.02.913,facelocalization,2020.1.2,MacIntel,60,0.282080078,-0.320869141,1,0,0,1.050425,18,0,12,12,233,1,5
,,,,,,0.182363281,-0.005341797,1,0,0,0.516745,M,,,,,,0.332586,0.137754,,lsc,,22,female,right,mouse,yes,2021-04-08_10h38.02.913,facelocalization,2020.1.2,MacIntel,60,0.380180664,0.158041992,1,0,0,1.06648,2,0,13,13,3,1,1
,,,,,,-0.13652832,-0.014672852,1,0,0,0.66796,F,,,,,,0.21915,0.285606,,lsc,,22,female,right,mouse,yes,2021-04-08_10h38.02.913,facelocalization,2020.1.2,MacIntel,60,0.269833984,0.320566406,1,0,0,0.98216,2,0,14,14,7,1,1
,,,,,,-0.140371094,0.019892578,1,0,0,0.618855,F,,,,,,0.285606,-0.21915,,lsc,,22,female,right,mouse,yes,2021-04-08_10h38.02.913,facelocalization,2020.1.2,MacIntel,60,0.342294922,-0.236166992,1,0,0,1.06659,23,0,15,15,283,1,6
,,,,,,0.150966797,-0.009736328,1,0,0,0.59957,M,,,,,,-0.356904,-0.04698,,lsc,,22,female,right,mouse,yes,2021-04-08_10h38.02.913,facelocalization,2020.1.2,MacIntel,60,-0.370961914,-0.040126953,1,0,0,1.050185,22,0,16,16,265,1,6
,,,,,,-0.165439453,0.00078125,1,0,0,0.583735,F,,,,,,0.137754,0.332586,,lsc,,22,female,right,mouse,yes,2021-04-08_10h38.02.913,facelocalization,2020.1.2,MacIntel,60,0.169658203,0.339492187,1,0,0,0.83343,25,0,17,17,297,1,7
,,,,,,-0.149316406,0.000600586,1,0,0,0.59806,F,,,,,,0.31176,-0.18,,lsc,,22,female,right,mouse,yes,2021-04-08_10h38.02.913,facelocalization,2020.1.2,MacIntel,60,0.320507812,-0.21519043,1,0,0,1.152365,15,0,18,18,188,1,4
,,,,,,0.15512207,-0.005146484,1,0,0,0.53484,M,,,,,,0.285606,-0.21915,,lsc,,22,female,right,mouse,yes,2021-04-08_10h38.02.913,facelocalization,2020.1.2,MacIntel,60,0.326147461,-0.22484375,1,0,0,1.182595,18,0,19,19,235,1,5
,,,,,,0.160136719,-0.002631836,1,0,0,0.450465,M,,,,,,0.36,0,,lsc,,22,female,right,mouse,yes,2021-04-08_10h38.02.913,facelocalization,2020.1.2,MacIntel,60,0.377558594,-0.021962891,1,0,0,0.866845,10,0,20,20,96,1,3
,,,,,,0.148168945,-0.013554688,1,0,0,0.59982,M,,,,,,0.137754,0.332586,,lsc,,22,female,right,mouse,yes,2021-04-08_10h38.02.913,facelocalization,2020.1.2,MacIntel,60,0.164560547,0.312944336,1,0,0,1.10083,3,0,21,21,9,1,1
,,,,,,-0.148125,-0.003300781,1,0,0,0.515995,F,,,,,,0.21915,-0.285606,,lsc,,22,female,right,mouse,yes,2021-04-08_10h38.02.913,facelocalization,2020.1.2,MacIntel,60,0.234985352,-0.305834961,1,0,0,1.01766,30,0,22,22,377,1,8
,,,,,,-0.152250977,-0.018540039,1,0,0,0.484305,F,,,,,,-0.356904,0.04698,,lsc,,22,female,right,mouse,yes,2021-04-08_10h38.02.913,facelocalization,2020.1.2,MacIntel,60,-0.396650391,0.029750977,1,0,0,1.030895,17,0,23,23,215,1,5
,,,,,,0.182768555,0.011884766,1,0,0,0.464815,M,,,,,,-0.285606,-0.21915,,lsc,,22,female,right,mouse,yes,2021-04-08_10h38.02.913,facelocalization,2020.1.2,MacIntel,60,-0.297329102,-0.205620117,1,0,0,1.03475,3,0,24,24,29,1,1
,,,,,,-0.141796875,0.010458984,1,0,0,0.583515,F,,,,,,0.18,-0.31176,,lsc,,22,female,right,mouse,yes,2021-04-08_10h38.02.913,facelocalization,2020.1.2,MacIntel,60,0.20734375,-0.312895508,1,0,0,1.13448,7,0,25,25,88,1,2
,,,,,,-0.148076172,0.005874023,1,0,0,0.68377,F,,,,,,0.21915,0.285606,,lsc,,22,female,right,mouse,yes,2021-04-08_10h38.02.913,facelocalization,2020.1.2,MacIntel,60,0.2515625,0.292641602,1,0,0,1.08434,24,0,26,26,247,1,6
,,,,,,0.153574219,0.000859375,1,0,0,0.55078,M,,,,,,-0.04698,0.356904,,lsc,,22,female,right,mouse,yes,2021-04-08_10h38.02.913,facelocalization,2020.1.2,MacIntel,60,-0.03862793,0.355410156,1,0,0,1.26701,22,0,27,27,253,1,6
,,,,,,-0.140322266,-0.019267578,1,0,0,0.551035,F,,,,,,0.356904,-0.04698,,lsc,,22,female,right,mouse,yes,2021-04-08_10h38.02.913,facelocalization,2020.1.2,MacIntel,60,0.431708984,-0.060327148,1,0,0,0.98159,1,0,28,28,47,1,1
,,,,,,-0.175,-0.0040625,1,0,0,0.60026,F,,,,,,0.347724,0.093168,,lsc,,22,female,right,mouse,yes,2021-04-08_10h38.02.913,facelocalization,2020.1.2,MacIntel,60,0.374091797,0.076899414,1,0,0,1.033725,1,0,29,29,2,1,1
,,,,,,0.165146484,0.014697266,1,0,0,0.56566,M,,,,,,-0.332586,-0.137754,,lsc,,22,female,right,mouse,yes,2021-04-08_10h38.02.913,facelocalization,2020.1.2,MacIntel,60,-0.357353516,-0.167314453,1,0,0,0.9669,22,0,30,30,267,1,6
,,,,,,-0.149921875,-0.003447266,1,0,0,0.633905,F,,,,,,-0.093168,0.347724,,lsc,,22,female,right,mouse,yes,2021-04-08_10h38.02.913,facelocalization,2020.1.2,MacIntel,60,-0.104931641,0.358203125,1,0,0,1.066165,1,0,31,31,14,1,1
,,,,,,0.133510742,-0.003696289,1,0,0,0.59813,M,,,,,,-0.347724,-0.093168,,lsc,,22,female,right,mouse,yes,2021-04-08_10h38.02.913,facelocalization,2020.1.2,MacIntel,60,-0.353828125,-0.118603516,1,0,0,0.885125,26,0,32,32,314,1,7
,,,,,,-0.129277344,0.012758789,1,0,0,0.56684,F,,,,,,-0.093168,0.347724,,lsc,,22,female,right,mouse,yes,2021-04-08_10h38.02.913,facelocalization,2020.1.2,MacIntel,60,-0.089155273,0.394238281,1,0,0,1.18371,14,0,33,33,158,1,4
,,,,,,0.163549805,-0.008979492,1,0,0,0.8507,M,,,,,,0.347724,0.093168,,lsc,,22,female,right,mouse,yes,2021-04-08_10h38.02.913,facelocalization,2020.1.2,MacIntel,60,0.41543457,0.072333984,1,0,0,0.950115,29,0,34,34,338,1,8
,,,,,,0.135961914,-0.013271484,1,0,0,0.483365,M,,,,,,-0.254556,-0.254556,,lsc,,22,female,right,mouse,yes,2021-04-08_10h38.02.913,facelocalization,2020.1.2,MacIntel,60,-0.264711914,-0.270883789,1,0,0,1.08307,2,0,35,35,30,1,1
,,,,,,-0.183134766,-0.000859375,1,0,0,0.567805,F,,,,,,0.04698,-0.356904,,lsc,,22,female,right,mouse,yes,2021-04-08_10h38.02.913,facelocalization,2020.1.2,MacIntel,60,0.056386719,-0.37965332,1,0,0,0.96784,25,0,36,36,325,1,7
,,,,,,0.172094727,-0.007636719,1,0,0,0.517065,M,,,,,,0.285606,0.21915,,lsc,,22,female,right,mouse,yes,2021-04-08_10h38.02.913,facelocalization,2020.1.2,MacIntel,60,0.37128418,0.23996582,1,0,0,1.00035,27,0,37,37,293,1,7
,,,,,,0.133481445,-0.005444336,1,0,0,0.669425,M,,,,,,0.04698,0.356904,,lsc,,22,female,right,mouse,yes,2021-04-08_10h38.02.913,facelocalization,2020.1.2,MacIntel,60,0.033325195,0.374868164,1,0,0,1.19989,26,0,38,38,299,1,7
,,,,,,0.178549805,-0.000400391,1,0,0,0.569445,M,,,,,,0.332586,-0.137754,,lsc,,22,female,right,mouse,yes,2021-04-08_10h38.02.913,facelocalization,2020.1.2,MacIntel,60,0.378168945,-0.140258789,1,0,0,0.98311,24,0,39,39,285,1,6
,,,,,,0.159902344,0.000639648,1,0,0,0.55036,M,,,,,,0.285606,0.21915,,lsc,,22,female,right,mouse,yes,2021-04-08_10h38.02.913,facelocalization,2020.1.2,MacIntel,60,0.384916992,0.192304687,1,0,0,0.983305,8,0,40,40,53,1,2
,,,,,,0.139511719,-0.023515625,1,0,0,0.498995,M,,,,,,0.093168,-0.347724,,lsc,,22,female,right,mouse,yes,2021-04-08_10h38.02.913,facelocalization,2020.1.2,MacIntel,60,0.109926758,-0.402016602,1,0,0,1.134215,27,0,41,41,326,1,7
,,,,,,0.140200195,-0.013959961,1,0,0,0.417345,M,,,,,,0.347724,-0.093168,,lsc,,22,female,right,mouse,yes,2021-04-08_10h38.02.913,facelocalization,2020.1.2,MacIntel,60,0.387075195,-0.089272461,1,0,0,0.966185,9,0,42,42,142,1,3
,,,,,,-0.133369141,-0.001445312,1,0,0,0.58155,F,,,,,,0.18,-0.31176,,lsc,,22,female,right,mouse,yes,2021-04-08_10h38.02.913,facelocalization,2020.1.2,MacIntel,60,0.203232422,-0.340541992,1,0,0,1.11912,23,0,43,43,280,1,6
,,,,,,-0.139389648,-0.016254883,1,0,0,0.58358,F,,,,,,-0.18,-0.31176,,lsc,,22,female,right,mouse,yes,2021-04-08_10h38.02.913,facelocalization,2020.1.2,MacIntel,60,-0.193022461,-0.329077148,1,0,0,1.16726,31,0,44,44,368,1,8
,,,,,,-0.145830078,0.007587891,1,0,0,0.497995,F,,,,,,-0.04698,-0.356904,,lsc,,22,female,right,mouse,yes,2021-04-08_10h38.02.913,facelocalization,2020.1.2,MacIntel,60,-0.026479492,-0.341860352,1,0,0,1.05216,9,0,45,45,131,1,3
,,,,,,-0.143857422,0.014736328,1,0,0,0.80007,F,,,,,,0.18,0.31176,,lsc,,22,female,right,mouse,yes,2021-04-08_10h38.02.913,facelocalization,2020.1.2,MacIntel,60,0.233896484,0.352294922,1,0,0,1.018125,3,0,46,46,8,1,1
,,,,,,0.106313477,-0.007373047,1,0,0,0.554955,M,,,,,,-0.18,0.31176,,lsc,,22,female,right,mouse,yes,2021-04-08_10h38.02.913,facelocalization,2020.1.2,MacIntel,60,-0.13578125,0.310761719,1,0,0,1.167,8,0,47,47,64,1,2
,,,,,,-0.128823242,-0.002817383,1,0,0,0.51837,F,,,,,,-0.18,-0.31176,,lsc,,22,female,right,mouse,yes,2021-04-08_10h38.02.913,facelocalization,2020.1.2,MacIntel,60,-0.172719727,-0.330639648,1,0,0,1.082805,23,0,48,48,272,1,6
,,,,,,-0.125493164,0.001264648,1,0,0,0.56606,F,,,,,,-0.18,0.31176,,lsc,,22,female,right,mouse,yes,2021-04-08_10h38.02.913,facelocalization,2020.1.2,MacIntel,60,-0.147504883,0.307988281,1,0,0,0.98355,31,0,49,49,352,1,8
,,,,,,0.174033203,-0.005302734,1,0,0,0.36559,M,,,,,,0.356904,-0.04698,,lsc,,22,female,right,mouse,yes,2021-04-08_10h38.02.913,facelocalization,2020.1.2,MacIntel,60,0.353427734,-0.03546875,1,0,0,0.950595,8,0,50,50,95,1,2
,,,,,,-0.155307617,0.006933594,1,0,0,0.564395,F,,,,,,-0.254556,0.254556,,lsc,,22,female,right,mouse,yes,2021-04-08_10h38.02.913,facelocalization,2020.1.2,MacIntel,60,-0.234980469,0.253325195,1,0,0,1.067275,1,0,51,51,18,1,1
,,,,,,-0.145307617,0.000429688,1,0,0,0.484685,F,,,,,,-0.356904,-0.04698,,lsc,,22,female,right,mouse,yes,2021-04-08_10h38.02.913,facelocalization,2020.1.2,MacIntel,60,-0.341767578,-0.036938477,1,0,0,0.949685,14,0,52,52,169,1,4
,,,,,,-0.145380859,0.029775391,1,0,0,0.432035,F,,,,,,-0.18,-0.31176,,lsc,,22,female,right,mouse,yes,2021-04-08_10h38.02.913,facelocalization,2020.1.2,MacIntel,60,-0.181376953,-0.306220703,1,0,0,1.11839,12,0,53,53,128,1,3
,,,,,,-0.160004883,-4.39453E-05,1,0,0,0.61775,F,,,,,,0.31176,-0.18,,lsc,,22,female,right,mouse,yes,2021-04-08_10h38.02.913,facelocalization,2020.1.2,MacIntel,60,0.317817383,-0.181044922,1,0,0,1.03376,32,0,54,54,380,1,8
,,,,,,0.164477539,0.011479492,1,0,0,0.58325,M,,,,,,-0.093168,-0.347724,,lsc,,22,female,right,mouse,yes,2021-04-08_10h38.02.913,facelocalization,2020.1.2,MacIntel,60,-0.068227539,-0.316137695,1,0,0,1.06659,24,0,55,55,274,1,6
,,,,,,0.163105469,-0.006010742,1,0,0,0.649515,M,,,,,,-0.285606,-0.21915,,lsc,,22,female,right,mouse,yes,2021-04-08_10h38.02.913,facelocalization,2020.1.2,MacIntel,60,-0.239814453,-0.215883789,1,0,0,0.950635,24,0,56,56,269,1,6
,,,,,,-0.134243164,0.002119141,1,0,0,0.60188,F,,,,,,-0.356904,0.04698,,lsc,,22,female,right,mouse,yes,2021-04-08_10h38.02.913,facelocalization,2020.1.2,MacIntel,60,-0.339282227,0.032836914,1,0,0,1.183935,13,0,57,57,167,1,4
,,,,,,-0.152631836,-0.022353516,1,0,0,0.50015,F,,,,,,-0.137754,0.332586,,lsc,,22,female,right,mouse,yes,2021-04-08_10h38.02.913,facelocalization,2020.1.2,MacIntel,60,-0.144697266,0.358149414,1,0,0,1.14876,15,0,58,58,159,1,4
,,,,,,0.143310547,-0.012060547,1,0,0,0.564875,M,,,,,,0.137754,0.332586,,lsc,,22,female,right,mouse,yes,2021-04-08_10h38.02.913,facelocalization,2020.1.2,MacIntel,60,0.188945312,0.348408203,1,0,0,1.0663,11,0,59,59,105,1,3
,,,,,,0.16315918,-0.016757813,1,0,0,0.48182,M,,,,,,-0.254556,0.254556,,lsc,,22,female,right,mouse,yes,2021-04-08_10h38.02.913,facelocalization,2020.1.2,MacIntel,60,-0.221455078,0.270917969,1,0,0,1.18524,15,0,60,60,162,1,4
,,,,,,-0.151391602,-0.005761719,1,0,0,0.467075,F,,,,,,-0.356904,0.04698,,lsc,,22,female,right,mouse,yes,2021-04-08_10h38.02.913,facelocalization,2020.1.2,MacIntel,60,-0.326630859,0.017929687,1,0,0,1.064965,28,0,61,61,311,1,7
,,,,,,-0.139951172,0.013486328,1,0,0,0.55073,F,,,,,,-0.04698,-0.356904,,lsc,,22,female,right,mouse,yes,2021-04-08_10h38.02.913,facelocalization,2020.1.2,MacIntel,60,-0.031772461,-0.366494141,1,0,0,1.01642,21,0,62,62,275,1,6
,,,,,,0.146181641,0.038256836,1,0,0,0.63384,M,,,,,,0,0.36,,lsc,,22,female,right,mouse,yes,2021-04-08_10h38.02.913,facelocalization,2020.1.2,MacIntel,60,0.02690918,0.391123047,1,0,0,0.96488,8,0,63,63,60,1,2
,,,,,,-0.171914062,-0.039033203,1,0,0,0.5149,F,,,,,,0.137754,0.332586,,lsc,,22,female,right,mouse,yes,2021-04-08_10h38.02.913,facelocalization,2020.1.2,MacIntel,60,0.175537109,0.35359375,1,0,0,0.883175,13,0,64,64,153,1,4
,,,,,,-0.176000977,-0.013774414,1,0,0,0.46673,F,,,,,,-0.285606,0.21915,,lsc,,22,female,right,mouse,yes,2021-04-08_10h38.02.913,facelocalization,2020.1.2,MacIntel,60,-0.269550781,0.216992187,1,0,0,0.94767,3,0,65,65,19,1,1
,,,,,,-0.126464844,-0.017260742,1,0,0,0.50068,F,,,,,,0.254556,-0.254556,,lsc,,22,female,right,mouse,yes,2021-04-08_10h38.02.913,facelocalization,2020.1.2,MacIntel,60,0.30152832,-0.273989258,1,0,0,1.01615,31,0,66,66,378,1,8
,,,,,,0.134760742,-0.023813477,1,0,0,0.482435,M,,,,,,-0.31176,0.18,,lsc,,22,female,right,mouse,yes,2021-04-08_10h38.02.913,facelocalization,2020.1.2,MacIntel,60,-0.276704102,0.165063477,1,0,0,0.71682,16,0,67,67,164,1,4
,,,,,,-0.154072266,0.042817383,1,0,0,0.481805,F,,,,,,-0.04698,0.356904,,lsc,,22,female,right,mouse,yes,2021-04-08_10h38.02.913,facelocalization,2020.1.2,MacIntel,60,-0.081801758,0.376708984,1,0,0,0.95178,30,0,68,68,349,1,8
,,,,,,0.161328125,0.012285156,1,0,0,0.55101,M,,,,,,0.254556,-0.254556,,lsc,,22,female,right,mouse,yes,2021-04-08_10h38.02.913,facelocalization,2020.1.2,MacIntel,60,0.284384766,-0.293217773,1,0,0,0.832205,26,0,69,69,330,1,7
,,,,,,-0.140449219,-0.013432617,1,0,0,0.60138,F,,,,,,0.356904,0.04698,,lsc,,22,female,right,mouse,yes,2021-04-08_10h38.02.913,facelocalization,2020.1.2,MacIntel,60,0.418823242,0.041542969,1,0,0,1.183535,24,0,70,70,241,1,6
,,,,,,0.157700195,-0.011708984,1,0,0,0.449755,M,,,,,,0.254556,-0.254556,,lsc,,22,female,right,mouse,yes,2021-04-08_10h38.02.913,facelocalization,2020.1.2,MacIntel,60,0.34815918,-0.295776367,1,0,0,0.81484,8,0,71,71,90,1,2
,,,,,,0.154296875,0.009731445,1,0,0,0.583255,M,,,,,,0.347724,-0.093168,,lsc,,22,female,right,mouse,yes,2021-04-08_10h38.02.913,facelocalization,2020.1.2,MacIntel,60,0.399433594,-0.101762695,1,0,0,0.899325,16,0,72,72,190,1,4
,,,,,,-0.103217773,-0.017597656,1,0,0,0.65032,F,,,,,,0.36,0,,lsc,,22,female,right,mouse,yes,2021-04-08_10h38.02.913,facelocalization,2020.1.2,MacIntel,60,0.432753906,-0.023916016,1,0,0,0.764425,29,0,73,73,336,1,8
,,,,,,-0.151669922,-0.006220703,1,0,0,0.599945,F,,,,,,0.332586,0.137754,,lsc,,22,female,right,mouse,yes,2021-04-08_10h38.02.913,facelocalization,2020.1.2,MacIntel,60,0.384199219,0.111113281,1,0,0,1.00055,23,0,74,74,243,1,6
,,,,,,0.165688477,-0.016210938,1,0,0,0.49862,M,,,,,,-0.254556,0.254556,,lsc,,22,female,right,mouse,yes,2021-04-08_10h38.02.913,facelocalization,2020.1.2,MacIntel,60,-0.275541992,0.29359375,1,0,0,0.916455,7,0,75,75,66,1,2
,,,,,,0.150942383,-0.013916016,1,0,0,0.566565,M,,,,,,0.21915,-0.285606,,lsc,,22,female,right,mouse,yes,2021-04-08_10h38.02.913,facelocalization,2020.1.2,MacIntel,60,0.272392578,-0.302412109,1,0,0,0.71678,28,0,76,76,329,1,7
,,,,,,-0.146557617,-0.015629883,1,0,0,0.584405,F,,,,,,0.254556,-0.254556,,lsc,,22,female,right,mouse,yes,2021-04-08_10h38.02.913,facelocalization,2020.1.2,MacIntel,60,0.338378906,-0.326074219,1,0,0,0.833735,23,0,77,77,282,1,6
,,,,,,0.119448242,-0.014682617,1,0,0,0.44936,M,,,,,,0.04698,-0.356904,,lsc,,22,female,right,mouse,yes,2021-04-08_10h38.02.913,facelocalization,2020.1.2,MacIntel,60,0.066660156,-0.35137207,1,0,0,1.00092,8,0,78,78,85,1,2
,,,,,,-0.153935547,0.005307617,1,0,0,0.580915,F,,,,,,-0.18,-0.31176,,lsc,,22,female,right,mouse,yes,2021-04-08_10h38.02.913,facelocalization,2020.1.2,MacIntel,60,-0.139550781,-0.33890625,1,0,0,0.970155,4,0,79,79,32,1,1
,,,,,,0.179907227,-0.017866211,1,0,0,0.61833,M,,,,,,0.31176,0.18,,lsc,,22,female,right,mouse,yes,2021-04-08_10h38.02.913,facelocalization,2020.1.2,MacIntel,60,0.326704102,0.191455078,1,0,0,1.016325,9,0,80,80,100,1,3
,,,,,,0.138066406,0.004116211,1,0,0,0.617415,M,,,,,,-0.254556,-0.254556,,lsc,,22,female,right,mouse,yes,2021-04-08_10h38.02.913,facelocalization,2020.1.2,MacIntel,60,-0.282514648,-0.306582031,1,0,0,0.981565,25,0,81,81,318,1,7
,,,,,,0.14918457,-0.003564453,1,0,0,0.58155,M,,,,,,-0.332586,-0.137754,,lsc,,22,female,right,mouse,yes,2021-04-08_10h38.02.913,facelocalization,2020.1.2,MacIntel,60,-0.347612305,-0.201235352,1,0,0,1.318765,1,0,82,82,27,1,1
,,,,,,0.16027832,0.008183594,1,0,0,0.43293,M,,,,,,0.254556,-0.254556,,lsc,,22,female,right,mouse,yes,2021-04-08_10h38.02.913,facelocalization,2020.1.2,MacIntel,60,0.303554687,-0.283339844,1,0,0,0.91564,11,0,83,83,138,1,3
,,,,,,-0.177021484,0.0059375,1,0,0,0.48328,F,,,,,,-0.356904,0.04698,,lsc,,22,female,right,mouse,yes,2021-04-08_10h38.02.913,facelocalization,2020.1.2,MacIntel,60,-0.351064453,0.013193359,1,0,0,0.932215,21,0,84,84,263,1,6
,,,,,,0.13746582,-0.035273437,1,0,0,0.53395,M,,,,,,0.285606,0.21915,,lsc,,22,female,right,mouse,yes,2021-04-08_10h38.02.913,facelocalization,2020.1.2,MacIntel,60,0.303701172,0.201450195,1,0,0,0.86508,21,0,85,85,245,1,6
,,,,,,0.180654297,-0.019101562,1,0,0,0.516995,M,,,,,,-0.31176,0.18,,lsc,,22,female,right,mouse,yes,2021-04-08_10h38.02.913,facelocalization,2020.1.2,MacIntel,60,-0.34296875,0.210649414,1,0,0,0.833735,21,0,86,86,260,1,6
,,,,,,-0.170488281,-0.010458984,1,0,0,0.56512,F,,,,,,0.04698,0.356904,,lsc,,22,female,right,mouse,yes,2021-04-08_10h38.02.913,facelocalization,2020.1.2,MacIntel,60,0.072939453,0.375957031,1,0,0,0.851635,5,0,87,87,59,1,2
,,,,,,-0.157954102,0.010463867,1,0,0,0.599095,F,,,,,,0.18,0.31176,,lsc,,22,female,right,mouse,yes,2021-04-08_10h38.02.913,facelocalization,2020.1.2,MacIntel,60,0.287802734,0.332675781,1,0,0,0.918125,8,0,88,88,56,1,2
,,,,,,-0.148120117,-0.016616211,1,0,0,0.400235,F,,,,,,-0.137754,-0.332586,,lsc,,22,female,right,mouse,yes,2021-04-08_10h38.02.913,facelocalization,2020.1.2,MacIntel,60,-0.123911133,-0.330234375,1,0,0,0.833415,28,0,89,89,321,1,7
,,,,,,-0.129868164,0.010498047,1,0,0,0.55131,F,,,,,,-0.254556,-0.254556,,lsc,,22,female,right,mouse,yes,2021-04-08_10h38.02.913,facelocalization,2020.1.2,MacIntel,60,-0.28784668,-0.281748047,1,0,0,0.782325,20,0,90,90,222,1,5
,,,,,,-0.134462891,-0.010361328,1,0,0,0.616315,F,,,,,,0,-0.36,,lsc,,22,female,right,mouse,yes,2021-04-08_10h38.02.913,facelocalization,2020.1.2,MacIntel,60,0.00355957,-0.383867187,1,0,0,0.800505,14,0,91,91,180,1,4
,,,,,,-0.188251953,0.004589844,1,0,0,0.5999,F,,,,,,0.356904,-0.04698,,lsc,,22,female,right,mouse,yes,2021-04-08_10h38.02.913,facelocalization,2020.1.2,MacIntel,60,0.420585938,-0.049375,1,0,0,0.766195,31,0,92,92,383,1,8
,,,,,,0.176987305,-0.016054688,1,0,0,0.54885,M,,,,,,-0.254556,0.254556,,lsc,,22,female,right,mouse,yes,2021-04-08_10h38.02.913,facelocalization,2020.1.2,MacIntel,60,-0.21640625,0.258266602,1,0,0,0.801355,24,0,93,93,258,1,6
,,,,,,-0.136933594,0.003696289,1,0,0,0.56551,F,,,,,,-0.137754,0.332586,,lsc,,22,female,right,mouse,yes,2021-04-08_10h38.02.913,facelocalization,2020.1.2,MacIntel,60,-0.116298828,0.327368164,1,0,0,0.933235,18,0,94,94,207,1,5
,,,,,,-0.17671875,-0.010112305,1,0,0,0.33207,F,,,,,,-0.356904,-0.04698,,lsc,,22,female,right,mouse,yes,2021-04-08_10h38.02.913,facelocalization,2020.1.2,MacIntel,60,-0.332407227,-0.039165039,1,0,0,0.952025,3,0,95,95,25,1,1
,,,,,,-0.19859375,0.003193359,1,0,0,0.466135,F,,,,,,0.21915,0.285606,,lsc,,22,female,right,mouse,yes,2021-04-08_10h38.02.913,facelocalization,2020.1.2,MacIntel,60,0.307294922,0.337485352,1,0,0,1.20092,14,0,96,96,151,1,4
,,,,,,0.160205078,-0.002998047,1,0,0,0.450565,M,,,,,,-0.31176,-0.18,,lsc,,22,female,right,mouse,yes,2021-04-08_10h38.02.913,facelocalization,2020.1.2,MacIntel,60,-0.330102539,-0.188398437,1,0,0,0.851555,5,0,97,97,76,1,2
,,,,,,-0.150498047,-0.019628906,1,0,0,0.41629,F,,,,,,-0.093168,-0.347724,,lsc,,22,female,right,mouse,yes,2021-04-08_10h38.02.913,facelocalization,2020.1.2,MacIntel,60,-0.084067383,-0.354208984,1,0,0,0.833355,31,0,98,98,370,1,8
,,,,,,-0.180307617,-0.003369141,1,0,0,0.601825,F,,,,,,0.36,0,,lsc,,22,female,right,mouse,yes,2021-04-08_10h38.02.913,facelocalization,2020.1.2,MacIntel,60,0.390131836,-0.019052734,1,0,0,0.750425,13,0,99,99,144,1,4
,,,,,,0.150273437,0.020463867,1,0,0,0.466565,M,,,,,,0.21915,-0.285606,,lsc,,22,female,right,mouse,yes,2021-04-08_10h38.02.913,facelocalization,2020.1.2,MacIntel,60,0.301367188,-0.292250977,1,0,0,0.90041,24,0,100,100,281,1,6
,,,,,,0.173984375,-0.016645508,1,0,0,0.41682,M,,,,,,0.31176,-0.18,,lsc,,22,female,right,mouse,yes,2021-04-08_10h38.02.913,facelocalization,2020.1.2,MacIntel,60,0.370869141,-0.193383789,1,0,0,0.766925,24,0,101,101,284,1,6
,,,,,,0.144570312,-0.002207031,1,0,0,0.6002,M,,,,,,-0.18,0.31176,,lsc,,22,female,right,mouse,yes,2021-04-08_10h38.02.913,facelocalization,2020.1.2,MacIntel,60,-0.211933594,0.366728516,1,0,0,1.034035,16,0,102,102,160,1,4
,,,,,,-0.131967773,-0.019736328,1,0,0,0.401765,F,,,,,,-0.04698,0.356904,,lsc,,22,female,right,mouse,yes,2021-04-08_10h38.02.913,facelocalization,2020.1.2,MacIntel,60,-0.057436523,0.378417969,1,0,0,0.93377,15,0,103,103,157,1,4
,,,,,,-0.243632812,0.024838867,1,0,0,0.468965,F,,,,,,0.356904,-0.04698,,lsc,,22,female,right,mouse,yes,2021-04-08_10h38.02.913,facelocalization,2020.1.2,MacIntel,60,0.387817383,-0.03262207,1,0,0,0.798065,12,0,104,104,143,1,3
,,,,,,0.127548828,-0.033173828,1,0,0,0.36727,M,,,,,,0.21915,-0.285606,,lsc,,22,female,right,mouse,yes,2021-04-08_10h38.02.913,facelocalization,2020.1.2,MacIntel,60,0.233945313,-0.301166992,1,0,0,0.81736,5,0,105,105,89,1,2
,,,,,,0.13503418,0.010073242,1,0,0,0.55015,M,,,,,,-0.332586,-0.137754,,lsc,,22,female,right,mouse,yes,2021-04-08_10h38.02.913,facelocalization,2020.1.2,MacIntel,60,-0.34206543,-0.159213867,1,0,0,0.900165,27,0,106,106,315,1,7
,,,,,,-0.14487793,-0.003286133,1,0,0,0.41811,F,,,,,,0.18,0.31176,,lsc,,22,female,right,mouse,yes,2021-04-08_10h38.02.913,facelocalization,2020.1.2,MacIntel,60,0.22277832,0.342348633,1,0,0,0.766705,31,0,107,107,344,1,8
,,,,,,-0.133583984,-0.006762695,1,0,0,0.41613,F,,,,,,0,0.36,,lsc,,22,female,right,mouse,yes,2021-04-08_10h38.02.913,facelocalization,2020.1.2,MacIntel,60,-0.008618164,0.425375977,1,0,0,0.719095,13,0,108,108,156,1,4
,,,,,,-0.146132812,0.009160156,1,0,0,0.550535,F,,,,,,-0.285606,-0.21915,,lsc,,22,female,right,mouse,yes,2021-04-08_10h38.02.913,facelocalization,2020.1.2,MacIntel,60,-0.293623047,-0.214819336,1,0,0,0.6986,31,0,109,109,365,1,8
,,,,,,-0.127548828,0.003422852,1,0,0,0.550085,F,,,,,,0.332586,0.137754,,lsc,,22,female,right,mouse,yes,2021-04-08_10h38.02.913,facelocalization,2020.1.2,MacIntel,60,0.355473633,0.151665039,1,0,0,0.88367,32,0,110,110,339,1,8
,,,,,,-0.081865234,-0.01996582,1,0,0,0.417325,F,,,,,,0.285606,-0.21915,,lsc,,22,female,right,mouse,yes,2021-04-08_10h38.02.913,facelocalization,2020.1.2,MacIntel,60,0.375595703,-0.246884766,1,0,0,0.68348,15,0,111,111,187,1,4
,,,,,,0.163388672,-0.009863281,1,0,0,0.38358,M,,,,,,0.04698,-0.356904,,lsc,,22,female,right,mouse,yes,2021-04-08_10h38.02.913,facelocalization,2020.1.2,MacIntel,60,0.063999023,-0.372294922,1,0,0,0.849895,21,0,112,112,277,1,6
,,,,,,0.137641602,-0.015317383,1,0,0,0.43084,M,,,,,,-0.254556,-0.254556,,lsc,,22,female,right,mouse,yes,2021-04-08_10h38.02.913,facelocalization,2020.1.2,MacIntel,60,-0.259243164,-0.263173828,1,0,0,0.71695,16,0,113,113,174,1,4
,,,,,,0.159399414,0.001748047,1,0,0,0.400245,M,,,,,,0.093168,0.347724,,lsc,,22,female,right,mouse,yes,2021-04-08_10h38.02.913,facelocalization,2020.1.2,MacIntel,60,0.152060547,0.401035156,1,0,0,0.731495,24,0,114,114,250,1,6
,,,,,,0.157919922,0.061645508,1,0,0,0.383305,M,,,,,,0.18,0.31176,,lsc,,22,female,right,mouse,yes,2021-04-08_10h38.02.913,facelocalization,2020.1.2,MacIntel,60,0.224516602,0.333432617,1,0,0,0.766525,11,0,115,115,104,1,3
,,,,,,-0.168837891,-0.057573242,1,0,0,0.468055,F,,,,,,0.137754,0.332586,,lsc,,22,female,right,mouse,yes,2021-04-08_10h38.02.913,facelocalization,2020.1.2,MacIntel,60,0.158549805,0.355253906,1,0,0,0.65006,7,0,116,116,57,1,2
,,,,,,0.133500977,0.009189453,1,0,0,0.41635,M,,,,,,0.31176,-0.18,,lsc,,22,female,right,mouse,yes,2021-04-08_10h38.02.913,facelocalization,2020.1.2,MacIntel,60,0.31222168,-0.196865234,1,0,0,0.85092,25,0,117,117,332,1,7
,,,,,,-0.150566406,0.021367187,1,0,0,0.45083,F,,,,,,-0.137754,0.332586,,lsc,,22,female,right,mouse,yes,2021-04-08_10h38.02.913,facelocalization,2020.1.2,MacIntel,60,-0.130439453,0.353989258,1,0,0,0.983155,32,0,118,118,351,1,8
,,,,,,-0.128964844,-0.037939453,1,0,0,0.466185,F,,,,,,-0.254556,0.254556,,lsc,,22,female,right,mouse,yes,2021-04-08_10h38.02.913,facelocalization,2020.1.2,MacIntel,60,-0.305166016,0.26890625,1,0,0,1.01752,20,0,119,119,210,1,5
,,,,,,-0.169931641,0.005996094,1,0,0,0.50023,F,,,,,,0,0.36,,lsc,,22,female,right,mouse,yes,2021-04-08_10h38.02.913,facelocalization,2020.1.2,MacIntel,60,0.010766602,0.374492188,1,0,0,0.915,1,0,120,120,12,1,1
,,,,,,0.13675293,-0.032524414,1,0,0,0.61853,M,,,,,,-0.21915,-0.285606,,lsc,,22,female,right,mouse,yes,2021-04-08_10h38.02.913,facelocalization,2020.1.2,MacIntel,60,-0.219394531,-0.325297852,1,0,0,0.750125,11,0,121,121,127,1,3
,,,,,,-0.160224609,-0.014204102,1,0,0,0.349765,F,,,,,,0,-0.36,,lsc,,22,female,right,mouse,yes,2021-04-08_10h38.02.913,facelocalization,2020.1.2,MacIntel,60,-0.024887695,-0.379438477,1,0,0,0.765535,3,0,122,122,36,1,1
,,,,,,0.171821289,-0.022207031,1,0,0,0.382745,M,,,,,,-0.21915,-0.285606,,lsc,,22,female,right,mouse,yes,2021-04-08_10h38.02.913,facelocalization,2020.1.2,MacIntel,60,-0.205947266,-0.314038086,1,0,0,0.78334,8,0,123,123,79,1,2
,,,,,,0.217363281,0.000244141,1,0,0,0.416625,M,,,,,,-0.36,0,,lsc,,22,female,right,mouse,yes,2021-04-08_10h38.02.913,facelocalization,2020.1.2,MacIntel,60,-0.346889648,0.012036133,1,0,0,0.900765,6,0,124,124,72,1,2
,,,,,,-0.123925781,-0.012338867,1,0,0,0.633745,F,,,,,,0,0.36,,lsc,,22,female,right,mouse,yes,2021-04-08_10h38.02.913,facelocalization,2020.1.2,MacIntel,60,-0.000185547,0.384375,1,0,0,0.81835,31,0,125,125,348,1,8
,,,,,,-0.129111328,0.003549805,1,0,0,0.398025,F,,,,,,0.137754,0.332586,,lsc,,22,female,right,mouse,yes,2021-04-08_10h38.02.913,facelocalization,2020.1.2,MacIntel,60,0.21546875,0.38128418,1,0,0,0.750025,19,0,126,126,201,1,5
,,,,,,0.134970703,0.017250977,1,0,0,0.43541,M,,,,,,-0.04698,-0.356904,,lsc,,22,female,right,mouse,yes,2021-04-08_10h38.02.913,facelocalization,2020.1.2,MacIntel,60,-0.031708984,-0.386889648,1,0,0,0.73269,26,0,127,127,323,1,7
,,,,,,0.136079102,0.015458984,1,0,0,0.346545,M,,,,,,0.347724,-0.093168,,lsc,,22,female,right,mouse,yes,2021-04-08_10h38.02.913,facelocalization,2020.1.2,MacIntel,60,0.347319336,-0.09046875,1,0,0,0.769685,24,0,128,128,286,1,6
,,,,,,-0.131030273,0.008642578,1,0,0,0.46652,F,,,,,,-0.332586,0.137754,,lsc,,22,female,right,mouse,yes,2021-04-08_10h38.02.913,facelocalization,2020.1.2,MacIntel,60,-0.367363281,0.131479492,1,0,0,0.750345,15,0,129,129,165,1,4
,,,,,,-0.174824219,0.026035156,1,0,0,0.40127,F,,,,,,-0.332586,0.137754,,lsc,,22,female,right,mouse,yes,2021-04-08_10h38.02.913,facelocalization,2020.1.2,MacIntel,60,-0.359384766,0.155283203,1,0,0,0.79943,31,0,130,130,357,1,8
,,,,,,-0.172050781,0.033637695,1,0,0,0.38357,F,,,,,,0.18,-0.31176,,lsc,,22,female,right,mouse,yes,2021-04-08_10h38.02.913,facelocalization,2020.1.2,MacIntel,60,0.174501953,-0.324316406,1,0,0,0.749925,29,0,131,131,376,1,8
,,,,,,-0.135239258,0.012089844,1,0,0,0.498395,F,,,,,,0.093168,0.347724,,lsc,,22,female,right,mouse,yes,2021-04-08_10h38.02.913,facelocalization,2020.1.2,MacIntel,60,0.119282227,0.346381836,1,0,0,0.751805,1,0,132,132,10,1,1
,,,,,,0.135507812,0.001411133,1,0,0,1.000865,M,,,,,,-0.04698,0.356904,,lsc,,22,female,right,mouse,yes,2021-04-08_10h38.02.913,facelocalization,2020.1.2,MacIntel,60,-0.026181641,0.35909668,1,0,0,0.766385,2,0,133,133,13,1,1
,,,,,,0.139541016,-0.016103516,1,0,0,0.700185,M,,,,,,-0.347724,-0.093168,,lsc,,22,female,right,mouse,yes,2021-04-08_10h38.02.913,facelocalization,2020.1.2,MacIntel,60,-0.372021484,-0.109589844,1,0,0,0.747975,2,0,134,134,26,1,1
,,,,,,0.128588867,0.008417969,1,0,0,0.616815,M,,,,,,-0.254556,-0.254556,,lsc,,22,female,right,mouse,yes,2021-04-08_10h38.02.913,facelocalization,2020.1.2,MacIntel,60,-0.253212891,-0.262124023,1,0,0,0.766115,11,0,135,135,126,1,3
,,,,,,-0.158657227,-0.041679687,1,0,0,0.39995,F,,,,,,-0.285606,-0.21915,,lsc,,22,female,right,mouse,yes,2021-04-08_10h38.02.913,facelocalization,2020.1.2,MacIntel,60,-0.311318359,-0.276293945,1,0,0,0.70012,13,0,136,136,173,1,4
,,,,,,0.156635742,0.00012207,1,0,0,0.44951,M,,,,,,-0.21915,0.285606,,lsc,,22,female,right,mouse,yes,2021-04-08_10h38.02.913,facelocalization,2020.1.2,MacIntel,60,-0.216748047,0.345224609,1,0,0,0.785435,6,0,137,137,65,1,2
,,,,,,-0.106811523,-0.019072266,1,0,0,0.39947,F,,,,,,0.18,-0.31176,,lsc,,22,female,right,mouse,yes,2021-04-08_10h38.02.913,facelocalization,2020.1.2,MacIntel,60,0.184121094,-0.355429687,1,0,0,0.751025,4,0,138,138,40,1,1
,,,,,,-0.128618164,0.011865234,1,0,0,0.467515,F,,,,,,0.254556,0.254556,,lsc,,22,female,right,mouse,yes,2021-04-08_10h38.02.913,facelocalization,2020.1.2,MacIntel,60,0.281425781,0.264106445,1,0,0,0.848075,4,0,139,139,6,1,1
,,,,,,0.171787109,0.01859375,1,0,0,0.58376,M,,,,,,-0.285606,-0.21915,,lsc,,22,female,right,mouse,yes,2021-04-08_10h38.02.913,facelocalization,2020.1.2,MacIntel,60,-0.275761719,-0.229985352,1,0,0,0.816445,18,0,140,140,221,1,5
,,,,,,0.137563477,-0.000400391,1,0,0,0.53227,M,,,,,,0.137754,-0.332586,,lsc,,22,female,right,mouse,yes,2021-04-08_10h38.02.913,facelocalization,2020.1.2,MacIntel,60,0.14465332,-0.382666016,1,0,0,0.66881,21,0,141,141,279,1,6
,,,,,,-0.133759766,-0.002978516,1,0,0,0.500105,F,,,,,,0.21915,0.285606,,lsc,,22,female,right,mouse,yes,2021-04-08_10h38.02.913,facelocalization,2020.1.2,MacIntel,60,0.282226563,0.297739258,1,0,0,0.71449,30,0,142,142,343,1,8
,,,,,,0.108198242,-0.014560547,1,0,0,0.399835,M,,,,,,0.356904,-0.04698,,lsc,,22,female,right,mouse,yes,2021-04-08_10h38.02.913,facelocalization,2020.1.2,MacIntel,60,0.330688477,-0.072299805,1,0,0,0.83374,26,0,143,143,335,1,7
,,,,,,-0.134570313,-0.01237793,1,0,0,0.516475,F,,,,,,0.18,-0.31176,,lsc,,22,female,right,mouse,yes,2021-04-08_10h38.02.913,facelocalization,2020.1.2,MacIntel,60,0.178554688,-0.348876953,1,0,0,0.667645,13,0,144,144,184,1,4
,,,,,,0.143139648,0.005297852,1,0,0,0.48358,M,,,,,,-0.31176,0.18,,lsc,,22,female,right,mouse,yes,2021-04-08_10h38.02.913,facelocalization,2020.1.2,MacIntel,60,-0.337050781,0.194692383,1,0,0,0.800885,7,0,145,145,68,1,2
,,,,,,0.164750977,-0.016010742,1,0,0,0.56554,M,,,,,,0.04698,0.356904,,lsc,,22,female,right,mouse,yes,2021-04-08_10h38.02.913,facelocalization,2020.1.2,MacIntel,60,0.05128418,0.352783203,1,0,0,0.95266,21,0,146,146,251,1,6
,,,,,,-0.183120117,-0.026464844,1,0,0,0.34957,F,,,,,,-0.254556,-0.254556,,lsc,,22,female,right,mouse,yes,2021-04-08_10h38.02.913,facelocalization,2020.1.2,MacIntel,60,-0.286020508,-0.263173828,1,0,0,0.648675,5,0,147,147,78,1,2
,,,,,,-0.154926758,-0.042734375,1,0,0,0.450125,F,,,,,,-0.04698,-0.356904,,lsc,,22,female,right,mouse,yes,2021-04-08_10h38.02.913,facelocalization,2020.1.2,MacIntel,60,-0.009614258,-0.412529297,1,0,0,0.73331,7,0,148,148,83,1,2
,,,,,,-0.135327148,0.013901367,1,0,0,0.50029,F,,,,,,0.31176,0.18,,lsc,,22,female,right,mouse,yes,2021-04-08_10h38.02.913,facelocalization,2020.1.2,MacIntel,60,0.302368164,0.120620117,1,0,0,0.950625,19,0,149,149,196,1,5
,,,,,,-0.149248047,-0.002285156,1,0,0,0.648335,F,,,,,,0.093168,0.347724,,lsc,,22,female,right,mouse,yes,2021-04-08_10h38.02.913,facelocalization,2020.1.2,MacIntel,60,0.092250977,0.334604492,1,0,0,1.053125,20,0,150,150,202,1,5
,,,,,,0.14409668,-0.024433594,1,0,0,0.448895,M,,,,,,-0.356904,0.04698,,lsc,,22,female,right,mouse,yes,2021-04-08_10h38.02.913,facelocalization,2020.1.2,MacIntel,60,-0.380146484,0.026079102,1,0,0,0.76523,7,0,151,151,71,1,2
,,,,,,-0.139487305,0.005810547,1,0,0,0.51835,F,,,,,,0.18,-0.31176,,lsc,,22,female,right,mouse,yes,2021-04-08_10h38.02.913,facelocalization,2020.1.2,MacIntel,60,0.209145508,-0.315517578,1,0,0,0.800115,20,0,152,152,232,1,5
,,,,,,-0.130917969,0.003452148,1,0,0,0.51579,F,,,,,,-0.21915,0.285606,,lsc,,22,female,right,mouse,yes,2021-04-08_10h38.02.913,facelocalization,2020.1.2,MacIntel,60,-0.232548828,0.357329102,1,0,0,0.801545,17,0,153,153,209,1,5
,,,,,,0.127348633,-0.016748047,1,0,0,0.49572,M,,,,,,-0.137754,-0.332586,,lsc,,22,female,right,mouse,yes,2021-04-08_10h38.02.913,facelocalization,2020.1.2,MacIntel,60,-0.120864258,-0.335058594,1,0,0,0.85425,10,0,154,154,129,1,3
,,,,,,-0.190581055,-0.012084961,1,0,0,0.503485,F,,,,,,0.04698,-0.356904,,lsc,,22,female,right,mouse,yes,2021-04-08_10h38.02.913,facelocalization,2020.1.2,MacIntel,60,0.055200195,-0.380390625,1,0,0,0.714555,14,0,155,155,181,1,4
,,,,,,-0.127832031,-0.013466797,1,0,0,0.517275,F,,,,,,0.285606,-0.21915,,lsc,,22,female,right,mouse,yes,2021-04-08_10h38.02.913,facelocalization,2020.1.2,MacIntel,60,0.306293945,-0.227539063,1,0,0,0.80208,29,0,156,156,379,1,8
,,,,,,0.135195312,-0.005991211,1,0,0,0.53366,M,,,,,,-0.285606,0.21915,,lsc,,22,female,right,mouse,yes,2021-04-08_10h38.02.913,facelocalization,2020.1.2,MacIntel,60,-0.267402344,0.248183594,1,0,0,0.7308,11,0,157,157,115,1,3
,,,,,,-0.144433594,-0.013212891,1,0,0,0.48393,F,,,,,,-0.347724,0.093168,,lsc,,22,female,right,mouse,yes,2021-04-08_10h38.02.913,facelocalization,2020.1.2,MacIntel,60,-0.350263672,0.087070312,1,0,0,0.900685,14,0,158,158,166,1,4
,,,,,,-0.137763672,0.028442383,1,0,0,0.63227,F,,,,,,0.356904,-0.04698,,lsc,,22,female,right,mouse,yes,2021-04-08_10h38.02.913,facelocalization,2020.1.2,MacIntel,60,0.385092773,-0.060200195,1,0,0,0.90123,13,0,159,159,191,1,4
,,,,,,-0.177138672,-0.028041992,1,0,0,0.38284,F,,,,,,-0.332586,-0.137754,,lsc,,22,female,right,mouse,yes,2021-04-08_10h38.02.913,facelocalization,2020.1.2,MacIntel,60,-0.349023437,-0.176757813,1,0,0,0.866455,19,0,160,160,219,1,5
,,,,,,0.157509766,-0.005424805,1,0,0,0.56648,M,,,,,,-0.093168,-0.347724,,lsc,,22,female,right,mouse,yes,2021-04-08_10h38.02.913,facelocalization,2020.1.2,MacIntel,60,-0.117543945,-0.402148438,1,0,0,0.76532,16,0,161,161,178,1,4
,,,,,,-0.170214844,0.017929687,1,0,0,0.450835,F,,,,,,0.137754,-0.332586,,lsc,,22,female,right,mouse,yes,2021-04-08_10h38.02.913,facelocalization,2020.1.2,MacIntel,60,0.144570312,-0.354799805,1,0,0,0.73271,20,0,162,162,231,1,5
,,,,,,0.150400391,0.013916016,1,0,0,0.43155,M,,,,,,-0.093168,-0.347724,,lsc,,22,female,right,mouse,yes,2021-04-08_10h38.02.913,facelocalization,2020.1.2,MacIntel,60,-0.117260742,-0.402885742,1,0,0,0.71711,18,0,163,163,226,1,5
,,,,,,-0.152441406,-0.01828125,1,0,0,0.534945,F,,,,,,0.093168,-0.347724,,lsc,,22,female,right,mouse,yes,2021-04-08_10h38.02.913,facelocalization,2020.1.2,MacIntel,60,0.087363281,-0.362211914,1,0,0,0.85025,19,0,164,164,230,1,5
,,,,,,0.167314453,-0.057895508,1,0,0,0.466255,M,,,,,,-0.093168,0.347724,,lsc,,22,female,right,mouse,yes,2021-04-08_10h38.02.913,facelocalization,2020.1.2,MacIntel,60,-0.102084961,0.349990234,1,0,0,0.933665,6,0,165,165,62,1,2
,,,,,,-0.10956543,0.019086914,1,0,0,0.58376,F,,,,,,0.21915,-0.285606,,lsc,,22,female,right,mouse,yes,2021-04-08_10h38.02.913,facelocalization,2020.1.2,MacIntel,60,0.239223633,-0.336875,1,0,0,0.66675,13,0,166,166,185,1,4
,,,,,,-0.155166016,-0.009501953,1,0,0,0.565735,F,,,,,,-0.36,0,,lsc,,22,female,right,mouse,yes,2021-04-08_10h38.02.913,facelocalization,2020.1.2,MacIntel,60,-0.364306641,0.005039063,1,0,0,0.78535,29,0,167,167,360,1,8
,,,,,,0.175610352,0.003549805,1,0,0,0.633895,M,,,,,,0.254556,0.254556,,lsc,,22,female,right,mouse,yes,2021-04-08_10h38.02.913,facelocalization,2020.1.2,MacIntel,60,0.291533203,0.294960938,1,0,0,0.78065,5,0,168,168,54,1,2
,,,,,,0.157392578,-0.005083008,1,0,0,0.51577,M,,,,,,0.347724,-0.093168,,lsc,,22,female,right,mouse,yes,2021-04-08_10h38.02.913,facelocalization,2020.1.2,MacIntel,60,0.388725586,-0.099511719,1,0,0,0.800735,27,0,169,169,334,1,7
,,,,,,0.158422852,0.020444336,1,0,0,0.431215,M,,,,,,0.285606,0.21915,,lsc,,22,female,right,mouse,yes,2021-04-08_10h38.02.913,facelocalization,2020.1.2,MacIntel,60,0.300058594,0.23253418,1,0,0,0.818675,16,0,170,170,149,1,4
,,,,,,-0.156762695,-0.027387695,1,0,0,0.51712,F,,,,,,0.31176,0.18,,lsc,,22,female,right,mouse,yes,2021-04-08_10h38.02.913,facelocalization,2020.1.2,MacIntel,60,0.345830078,0.177490234,1,0,0,0.75058,13,0,171,171,148,1,4
,,,,,,-0.150922852,-0.015859375,1,0,0,0.467,F,,,,,,0,0.36,,lsc,,22,female,right,mouse,yes,2021-04-08_10h38.02.913,facelocalization,2020.1.2,MacIntel,60,0.005966797,0.376611328,1,0,0,0.79917,17,0,172,172,204,1,5
,,,,,,0.187734375,0.009477539,1,0,0,0.46497,M,,,,,,0.18,-0.31176,,lsc,,22,female,right,mouse,yes,2021-04-08_10h38.02.913,facelocalization,2020.1.2,MacIntel,60,0.238930664,-0.335776367,1,0,0,0.70217,27,0,173,173,328,1,7
,,,,,,-0.164594727,-0.019145508,1,0,0,0.500555,F,,,,,,0.347724,0.093168,,lsc,,22,female,right,mouse,yes,2021-04-08_10h38.02.913,facelocalization,2020.1.2,MacIntel,60,0.410874023,0.072211914,1,0,0,0.71614,12,0,174,174,98,1,3
,,,,,,0.188237305,-0.011699219,1,0,0,0.381165,M,,,,,,-0.356904,-0.04698,,lsc,,22,female,right,mouse,yes,2021-04-08_10h38.02.913,facelocalization,2020.1.2,MacIntel,60,-0.389443359,-0.036489258,1,0,0,0.71801,10,0,175,175,121,1,3
,,,,,,0.110673828,-0.006977539,1,0,0,0.41788,M,,,,,,0.21915,0.285606,,lsc,,22,female,right,mouse,yes,2021-04-08_10h38.02.913,facelocalization,2020.1.2,MacIntel,60,0.233198242,0.28675293,1,0,0,0.767095,25,0,176,176,295,1,7
,,,,,,-0.164306641,0.026577148,1,0,0,0.533495,F,,,,,,0.31176,-0.18,,lsc,,22,female,right,mouse,yes,2021-04-08_10h38.02.913,facelocalization,2020.1.2,MacIntel,60,0.365239258,-0.201650391,1,0,0,0.75075,12,0,177,177,140,1,3
,,,,,,0.170400391,-0.018720703,1,0,0,0.58423,M,,,,,,-0.137754,0.332586,,lsc,,22,female,right,mouse,yes,2021-04-08_10h38.02.913,facelocalization,2020.1.2,MacIntel,60,-0.13590332,0.354697266,1,0,0,1.033695,24,0,178,178,255,1,6
,,,,,,0.184560547,0.008813477,1,0,0,0.550765,M,,,,,,-0.254556,-0.254556,,lsc,,22,female,right,mouse,yes,2021-04-08_10h38.02.913,facelocalization,2020.1.2,MacIntel,60,-0.223491211,-0.280615234,1,0,0,0.766245,23,0,179,179,270,1,6
,,,,,,-0.151850586,0.008916016,1,0,0,0.58091,F,,,,,,0.356904,0.04698,,lsc,,22,female,right,mouse,yes,2021-04-08_10h38.02.913,facelocalization,2020.1.2,MacIntel,60,0.363452148,0.020185547,1,0,0,0.752665,15,0,180,180,145,1,4
,,,,,,0.192197266,-0.017680664,1,0,0,0.53311,M,,,,,,-0.254556,0.254556,,lsc,,22,female,right,mouse,yes,2021-04-08_10h38.02.913,facelocalization,2020.1.2,MacIntel,60,-0.252695312,0.276328125,1,0,0,0.77793,9,0,181,181,114,1,3
,,,,,,-0.166083984,0.000947266,1,0,0,0.41829,F,,,,,,-0.36,0,,lsc,,22,female,right,mouse,yes,2021-04-08_10h38.02.913,facelocalization,2020.1.2,MacIntel,60,-0.351381836,-0.001152344,1,0,0,0.8832,12,0,182,182,120,1,3
,,,,,,-0.162421875,0.0065625,1,0,0,0.51676,F,,,,,,-0.356904,0.04698,,lsc,,22,female,right,mouse,yes,2021-04-08_10h38.02.913,facelocalization,2020.1.2,MacIntel,60,-0.380776367,0.054394531,1,0,0,0.81641,29,0,183,183,359,1,8
,,,,,,-0.120756836,-0.003789062,1,0,0,0.43441,F,,,,,,0.254556,-0.254556,,lsc,,22,female,right,mouse,yes,2021-04-08_10h38.02.913,facelocalization,2020.1.2,MacIntel,60,0.286899414,-0.258959961,1,0,0,0.833295,20,0,184,184,234,1,5
,,,,,,0.195922852,-0.019331055,1,0,0,0.464365,M,,,,,,-0.356904,0.04698,,lsc,,22,female,right,mouse,yes,2021-04-08_10h38.02.913,facelocalization,2020.1.2,MacIntel,60,-0.363344727,0.055488281,1,0,0,0.75059,11,0,185,185,119,1,3
,,,,,,-0.143237305,0.013730469,1,0,0,0.717615,F,,,,,,0.254556,0.254556,,lsc,,22,female,right,mouse,yes,2021-04-08_10h38.02.913,facelocalization,2020.1.2,MacIntel,60,0.331005859,0.244516602,1,0,0,0.717185,13,0,186,186,150,1,4
,,,,,,-0.150136719,0.00609375,1,0,0,0.615395,F,,,,,,-0.04698,0.356904,,lsc,,22,female,right,mouse,yes,2021-04-08_10h38.02.913,facelocalization,2020.1.2,MacIntel,60,-0.020541992,0.37262207,1,0,0,0.851285,18,0,187,187,205,1,5
,,,,,,0.1740625,0.004145508,1,0,0,0.56725,M,,,,,,-0.347724,0.093168,,lsc,,22,female,right,mouse,yes,2021-04-08_10h38.02.913,facelocalization,2020.1.2,MacIntel,60,-0.365317383,0.0965625,1,0,0,0.59939,9,0,188,188,118,1,3
,,,,,,-0.165751953,-0.019921875,1,0,0,0.632145,F,,,,,,-0.31176,-0.18,,lsc,,22,female,right,mouse,yes,2021-04-08_10h38.02.913,facelocalization,2020.1.2,MacIntel,60,-0.31293457,-0.221699219,1,0,0,0.751155,2,0,189,189,28,1,1
,,,,,,0.140400391,-0.002631836,1,0,0,0.632895,M,,,,,,-0.36,0,,lsc,,22,female,right,mouse,yes,2021-04-08_10h38.02.913,facelocalization,2020.1.2,MacIntel,60,-0.377080078,0.02046875,1,0,0,0.684365,24,0,190,190,264,1,6
,,,,,,-0.164121094,-0.000405273,1,0,0,0.53276,F,,,,,,-0.137754,-0.332586,,lsc,,22,female,right,mouse,yes,2021-04-08_10h38.02.913,facelocalization,2020.1.2,MacIntel,60,-0.121982422,-0.317216797,1,0,0,0.83192,13,0,191,191,177,1,4
,,,,,,-0.166401367,0.00890625,1,0,0,0.66597,F,,,,,,0.137754,-0.332586,,lsc,,22,female,right,mouse,yes,2021-04-08_10h38.02.913,facelocalization,2020.1.2,MacIntel,60,0.189951172,-0.317270508,1,0,0,1.152665,7,0,192,192,87,1,2
,,,,,,-0.160585937,0.005639648,1,0,0,0.41822,F,,,,,,-0.254556,-0.254556,,lsc,,22,female,right,mouse,yes,2021-04-08_10h38.02.913,facelocalization,2020.1.2,MacIntel,60,-0.256191406,-0.269951172,1,0,0,0.867005,31,0,193,193,366,1,8
,,,,,,0.139091797,-0.004536133,1,0,0,0.4485,M,,,,,,0.356904,0.04698,,lsc,,22,female,right,mouse,yes,2021-04-08_10h38.02.913,facelocalization,2020.1.2,MacIntel,60,0.382006836,0.051083984,1,0,0,0.785745,29,0,194,194,337,1,8
,,,,,,-0.142363281,-0.012236328,1,0,0,0.580155,F,,,,,,-0.18,0.31176,,lsc,,22,female,right,mouse,yes,2021-04-08_10h38.02.913,facelocalization,2020.1.2,MacIntel,60,-0.182807617,0.348442383,1,0,0,0.870895,20,0,195,195,208,1,5
,,,,,,-0.13690918,0.007519531,1,0,0,0.53195,F,,,,,,0.347724,-0.093168,,lsc,,22,female,right,mouse,yes,2021-04-08_10h38.02.913,facelocalization,2020.1.2,MacIntel,60,0.338203125,-0.071196289,1,0,0,0.902115,4,0,196,196,46,1,1
,,,,,,-0.159716797,0.006044922,1,0,0,0.4336,F,,,,,,-0.347724,0.093168,,lsc,,22,female,right,mouse,yes,2021-04-08_10h38.02.913,facelocalization,2020.1.2,MacIntel,60,-0.379526367,0.069355469,1,0,0,0.882255,4,0,197,197,22,1,1
,,,,,,-0.149541016,0.00081543,1,0,0,0.567315,F,,,,,,0.04698,-0.356904,,lsc,,22,female,right,mouse,yes,2021-04-08_10h38.02.913,facelocalization,2020.1.2,MacIntel,60,0.015029297,-0.371318359,1,0,0,0.8503,17,0,198,198,229,1,5
,,,,,,0.175893555,0.036196289,1,0,0,0.43341,M,,,,,,0.254556,0.254556,,lsc,,22,female,right,mouse,yes,2021-04-08_10h38.02.913,facelocalization,2020.1.2,MacIntel,60,0.323696289,0.281660156,1,0,0,0.665545,32,0,199,199,342,1,8
,,,,,,0.133295898,-0.00065918,1,0,0,0.450305,M,,,,,,0.31176,0.18,,lsc,,22,female,right,mouse,yes,2021-04-08_10h38.02.913,facelocalization,2020.1.2,MacIntel,60,0.372231445,0.196079102,1,0,0,0.83017,29,0,200,200,340,1,8
,,,,,,-0.141669922,0.009580078,1,0,0,0.533495,F,,,,,,-0.21915,-0.285606,,lsc,,22,female,right,mouse,yes,2021-04-08_10h38.02.913,facelocalization,2020.1.2,MacIntel,60,-0.248774414,-0.320908203,1,0,0,0.89985,29,0,201,201,367,1,8
,,,,,,0.152978516,0.010205078,1,0,0,0.50121,M,,,,,,0.21915,0.285606,,lsc,,22,female,right,mouse,yes,2021-04-08_10h38.02.913,facelocalization,2020.1.2,MacIntel,60,0.306469727,0.323183594,1,0,0,0.78362,8,0,202,202,55,1,2
,,,,,,-0.185698242,-0.006938477,1,0,0,0.466505,F,,,,,,0.31176,-0.18,,lsc,,22,female,right,mouse,yes,2021-04-08_10h38.02.913,facelocalization,2020.1.2,MacIntel,60,0.320400391,-0.178535156,1,0,0,0.66658,20,0,203,203,236,1,5
,,,,,,-0.148447266,-0.025688477,1,0,0,0.499355,F,,,,,,-0.04698,-0.356904,,lsc,,22,female,right,mouse,yes,2021-04-08_10h38.02.913,facelocalization,2020.1.2,MacIntel,60,-0.045366211,-0.376611328,1,0,0,0.768845,4,0,204,204,35,1,1
,,,,,,0.102485352,0.000634766,1,0,0,0.58387,M,,,,,,-0.093168,0.347724,,lsc,,22,female,right,mouse,yes,2021-04-08_10h38.02.913,facelocalization,2020.1.2,MacIntel,60,-0.05097168,0.400839844,1,0,0,0.849175,9,0,205,205,110,1,3
,,,,,,-0.168911133,-0.009389648,1,0,0,0.45039,F,,,,,,0,-0.36,,lsc,,22,female,right,mouse,yes,2021-04-08_10h38.02.913,facelocalization,2020.1.2,MacIntel,60,0.010620117,-0.374291992,1,0,0,0.766735,21,0,206,206,276,1,6
,,,,,,-0.150332031,-0.051557617,1,0,0,0.434375,F,,,,,,-0.31176,-0.18,,lsc,,22,female,right,mouse,yes,2021-04-08_10h38.02.913,facelocalization,2020.1.2,MacIntel,60,-0.317910156,-0.220322266,1,0,0,0.614535,13,0,207,207,172,1,4
,,,,,,0.151376953,0.026835938,1,0,0,0.46618,M,,,,,,0.332586,-0.137754,,lsc,,22,female,right,mouse,yes,2021-04-08_10h38.02.913,facelocalization,2020.1.2,MacIntel,60,0.346499023,-0.153486328,1,0,0,0.717375,2,0,208,208,45,1,1
,,,,,,-0.177905273,-0.006567383,1,0,0,0.48431,F,,,,,,-0.31176,-0.18,,lsc,,22,female,right,mouse,yes,2021-04-08_10h38.02.913,facelocalization,2020.1.2,MacIntel,60,-0.358144531,-0.207290039,1,0,0,0.63251,20,0,209,209,220,1,5
,,,,,,0.164204102,-0.003256836,1,0,0,0.55143,M,,,,,,0.04698,0.356904,,lsc,,22,female,right,mouse,yes,2021-04-08_10h38.02.913,facelocalization,2020.1.2,MacIntel,60,0.066333008,0.418896484,1,0,0,0.815705,14,0,210,210,155,1,4
,,,,,,-0.157978516,-0.000571289,1,0,0,0.53277,F,,,,,,-0.21915,0.285606,,lsc,,22,female,right,mouse,yes,2021-04-08_10h38.02.913,facelocalization,2020.1.2,MacIntel,60,-0.247382812,0.317446289,1,0,0,0.901005,14,0,211,211,161,1,4
,,,,,,0.172231445,-0.020029297,1,0,0,0.46662,M,,,,,,-0.18,0.31176,,lsc,,22,female,right,mouse,yes,2021-04-08_10h38.02.913,facelocalization,2020.1.2,MacIntel,60,-0.207021484,0.314082031,1,0,0,0.71674,22,0,212,212,256,1,6
,,,,,,-0.142641602,-0.013569336,1,0,0,0.516805,F,,,,,,-0.347724,-0.093168,,lsc,,22,female,right,mouse,yes,2021-04-08_10h38.02.913,facelocalization,2020.1.2,MacIntel,60,-0.35190918,-0.135244141,1,0,0,0.88296,13,0,213,213,170,1,4
,,,,,,-0.141630859,-0.007827148,1,0,0,0.58496,F,,,,,,-0.18,0.31176,,lsc,,22,female,right,mouse,yes,2021-04-08_10h38.02.913,facelocalization,2020.1.2,MacIntel,60,-0.190668945,0.287519531,1,0,0,0.68286,4,0,214,214,16,1,1
,,,,,,0.163330078,-0.002958984,1,0,0,0.465765,M,,,,,,-0.356904,-0.04698,,lsc,,22,female,right,mouse,yes,2021-04-08_10h38.02.913,facelocalization,2020.1.2,MacIntel,60,-0.352319336,-0.043808594,1,0,0,0.64695,5,0,215,215,73,1,2
,,,,,,0.113959961,0.006005859,1,0,0,0.583125,M,,,,,,-0.21915,-0.285606,,lsc,,22,female,right,mouse,yes,2021-04-08_10h38.02.913,facelocalization,2020.1.2,MacIntel,60,-0.241630859,-0.310175781,1,0,0,0.78211,26,0,216,216,319,1,7
,,,,,,0.163378906,-0.001259766,1,0,0,0.466645,M,,,,,,-0.137754,0.332586,,lsc,,22,female,right,mouse,yes,2021-04-08_10h38.02.913,facelocalization,2020.1.2,MacIntel,60,-0.130844727,0.337973633,1,0,0,0.81698,9,0,217,217,111,1,3
,,,,,,-0.163813477,0.009145508,1,0,0,0.53071,F,,,,,,0.36,0,,lsc,,22,female,right,mouse,yes,2021-04-08_10h38.02.913,facelocalization,2020.1.2,MacIntel,60,0.368452148,-0.012275391,1,0,0,0.78492,17,0,218,218,192,1,5
,,,,,,0.171523437,0.000205078,1,0,0,0.597735,M,,,,,,-0.21915,-0.285606,,lsc,,22,female,right,mouse,yes,2021-04-08_10h38.02.913,facelocalization,2020.1.2,MacIntel,60,-0.262041016,-0.306499023,1,0,0,0.75071,3,0,219,219,31,1,1
,,,,,,-0.158110352,0.021992187,1,0,0,0.40262,F,,,,,,0,-0.36,,lsc,,22,female,right,mouse,yes,2021-04-08_10h38.02.913,facelocalization,2020.1.2,MacIntel,60,0.021005859,-0.392041016,1,0,0,0.76513,29,0,220,220,372,1,8
,,,,,,-0.154545898,-0.005180664,1,0,0,0.517095,F,,,,,,-0.356904,-0.04698,,lsc,,22,female,right,mouse,yes,2021-04-08_10h38.02.913,facelocalization,2020.1.2,MacIntel,60,-0.320834961,-0.040581055,1,0,0,0.699265,20,0,221,221,217,1,5
,,,,,,0.139560547,0.028056641,1,0,0,0.433755,M,,,,,,-0.285606,-0.21915,,lsc,,22,female,right,mouse,yes,2021-04-08_10h38.02.913,facelocalization,2020.1.2,MacIntel,60,-0.288564453,-0.191616211,1,0,0,0.633335,10,0,222,222,125,1,3
,,,,,,-0.147441406,0.006669922,1,0,0,0.684385,F,,,,,,0.285606,0.21915,,lsc,,22,female,right,mouse,yes,2021-04-08_10h38.02.913,facelocalization,2020.1.2,MacIntel,60,0.351704102,0.22909668,1,0,0,0.782985,12,0,223,223,101,1,3
,,,,,,0.169501953,-0.010170898,1,0,0,0.41671,M,,,,,,0.093168,-0.347724,,lsc,,22,female,right,mouse,yes,2021-04-08_10h38.02.913,facelocalization,2020.1.2,MacIntel,60,0.068256836,-0.333276367,1,0,0,0.66485,2,0,224,224,38,1,1
,,,,,,0.160356445,0.008115234,1,0,0,0.43256,M,,,,,,0.332586,0.137754,,lsc,,22,female,right,mouse,yes,2021-04-08_10h38.02.913,facelocalization,2020.1.2,MacIntel,60,0.420029297,0.141264648,1,0,0,0.8489,11,0,225,225,99,1,3
,,,,,,0.127841797,0.046928711,1,0,0,0.533535,M,,,,,,0,-0.36,,lsc,,22,female,right,mouse,yes,2021-04-08_10h38.02.913,facelocalization,2020.1.2,MacIntel,60,0.011308594,-0.409003906,1,0,0,0.6332,12,0,226,226,132,1,3
,,,,,,-0.163134766,-0.000986328,1,0,0,0.533315,F,,,,,,0.332586,0.137754,,lsc,,22,female,right,mouse,yes,2021-04-08_10h38.02.913,facelocalization,2020.1.2,MacIntel,60,0.419804687,0.117890625,1,0,0,0.65112,25,0,227,227,291,1,7
,,,,,,0.171850586,-0.01328125,1,0,0,0.51675,M,,,,,,0.093168,0.347724,,lsc,,22,female,right,mouse,yes,2021-04-08_10h38.02.913,facelocalization,2020.1.2,MacIntel,60,0.108286133,0.381079102,1,0,0,0.750095,30,0,228,228,346,1,8
,,,,,,0.138398437,0.001572266,1,0,0,0.499915,M,,,,,,-0.31176,0.18,,lsc,,22,female,right,mouse,yes,2021-04-08_10h38.02.913,facelocalization,2020.1.2,MacIntel,60,-0.302182617,0.22112793,1,0,0,0.74808,28,0,229,229,308,1,7
,,,,,,0.124785156,0.016708984,1,0,0,0.43393,M,,,,,,-0.285606,0.21915,,lsc,,22,female,right,mouse,yes,2021-04-08_10h38.02.913,facelocalization,2020.1.2,MacIntel,60,-0.274643555,0.229238281,1,0,0,0.750255,28,0,230,230,307,1,7
,,,,,,-0.150581055,0.006801758,1,0,0,0.51665,F,,,,,,-0.285606,0.21915,,lsc,,22,female,right,mouse,yes,2021-04-08_10h38.02.913,facelocalization,2020.1.2,MacIntel,60,-0.289458008,0.234135742,1,0,0,0.816155,14,0,231,231,163,1,4
,,,,,,0.121850586,0.007480469,1,0,0,0.58366,M,,,,,,-0.347724,0.093168,,lsc,,22,female,right,mouse,yes,2021-04-08_10h38.02.913,facelocalization,2020.1.2,MacIntel,60,-0.361118164,0.088164063,1,0,0,0.84861,6,0,232,232,70,1,2
,,,,,,0.157924805,0.015791016,1,0,0,0.581925,M,,,,,,-0.332586,0.137754,,lsc,,22,female,right,mouse,yes,2021-04-08_10h38.02.913,facelocalization,2020.1.2,MacIntel,60,-0.400766602,0.153085937,1,0,0,0.699725,2,0,233,233,21,1,1
,,,,,,0.136386719,0.016865234,1,0,0,0.45013,M,,,,,,0.21915,-0.285606,,lsc,,22,female,right,mouse,yes,2021-04-08_10h38.02.913,facelocalization,2020.1.2,MacIntel,60,0.298154297,-0.313481445,1,0,0,0.784275,11,0,234,234,137,1,3
,,,,,,-0.177807617,-0.01765625,1,0,0,0.48291,F,,,,,,-0.332586,-0.137754,,lsc,,22,female,right,mouse,yes,2021-04-08_10h38.02.913,facelocalization,2020.1.2,MacIntel,60,-0.368286133,-0.144267578,1,0,0,0.76817,12,0,235,235,123,1,3
,,,,,,-0.167416992,0.005249023,1,0,0,0.4973,F,,,,,,0.356904,-0.04698,,lsc,,22,female,right,mouse,yes,2021-04-08_10h38.02.913,facelocalization,2020.1.2,MacIntel,60,0.365454102,-0.069589844,1,0,0,0.76939,20,0,236,236,239,1,5
,,,,,,0.155307617,0.014155273,1,0,0,0.483545,M,,,,,,0.137754,-0.332586,,lsc,,22,female,right,mouse,yes,2021-04-08_10h38.02.913,facelocalization,2020.1.2,MacIntel,60,0.148701172,-0.383637695,1,0,0,0.78166,27,0,237,237,327,1,7
,,,,,,-0.143422852,-0.001899414,1,0,0,0.56544,F,,,,,,-0.36,0,,lsc,,22,female,right,mouse,yes,2021-04-08_10h38.02.913,facelocalization,2020.1.2,MacIntel,60,-0.410888672,-0.010322266,1,0,0,0.84921,3,0,238,238,24,1,1
,,,,,,0.147045898,-0.019921875,1,0,0,0.383105,M,,,,,,0.137754,-0.332586,,lsc,,22,female,right,mouse,yes,2021-04-08_10h38.02.913,facelocalization,2020.1.2,MacIntel,60,0.154213867,-0.349897461,1,0,0,0.633765,2,0,239,239,39,1,1
,,,,,,0.174301758,-0.032587891,1,0,0,0.517885,M,,,,,,-0.31176,-0.18,,lsc,,22,female,right,mouse,yes,2021-04-08_10h38.02.913,facelocalization,2020.1.2,MacIntel,60,-0.318823242,-0.206494141,1,0,0,0.65011,27,0,240,240,316,1,7
,,,,,,-0.165,0.085849609,1,0,0,0.419865,F,,,,,,-0.18,-0.31176,,lsc,,22,female,right,mouse,yes,2021-04-08_10h38.02.913,facelocalization,2020.1.2,MacIntel,60,-0.166352539,-0.318291016,1,0,0,0.76643,15,0,241,241,176,1,4
,,,,,,0.190742187,-0.000258789,1,0,0,0.39912,M,,,,,,0.356904,0.04698,,lsc,,22,female,right,mouse,yes,2021-04-08_10h38.02.913,facelocalization,2020.1.2,MacIntel,60,0.377905273,0.045141602,1,0,0,0.79904,7,0,242,242,49,1,2
,,,,,,-0.141586914,-0.022890625,1,0,0,0.5666,F,,,,,,-0.347724,0.093168,,lsc,,22,female,right,mouse,yes,2021-04-08_10h38.02.913,facelocalization,2020.1.2,MacIntel,60,-0.336811523,0.087739258,1,0,0,0.832895,20,0,243,243,214,1,5
,,,,,,0.132763672,0.016069336,1,0,0,0.36332,M,,,,,,0.356904,0.04698,,lsc,,22,female,right,mouse,yes,2021-04-08_10h38.02.913,facelocalization,2020.1.2,MacIntel,60,0.361870117,0.038686523,1,0,0,0.83197,18,0,244,244,193,1,5
,,,,,,0.121884766,-0.003188477,1,0,0,0.36522,M,,,,,,0.093168,-0.347724,,lsc,,22,female,right,mouse,yes,2021-04-08_10h38.02.913,facelocalization,2020.1.2,MacIntel,60,0.111298828,-0.367382812,1,0,0,0.78608,21,0,245,245,278,1,6
,,,,,,0.171245117,0.005400391,1,0,0,0.484315,M,,,,,,0.137754,-0.332586,,lsc,,22,female,right,mouse,yes,2021-04-08_10h38.02.913,facelocalization,2020.1.2,MacIntel,60,0.186191406,-0.376123047,1,0,0,0.61576,32,0,246,246,375,1,8
,,,,,,-0.155424805,-0.016557617,1,0,0,0.4504,F,,,,,,-0.285606,0.21915,,lsc,,22,female,right,mouse,yes,2021-04-08_10h38.02.913,facelocalization,2020.1.2,MacIntel,60,-0.269731445,0.249399414,1,0,0,0.83164,17,0,247,247,211,1,5
,,,,,,0.16815918,-0.01453125,1,0,0,0.41504,M,,,,,,0.36,0,,lsc,,22,female,right,mouse,yes,2021-04-08_10h38.02.913,facelocalization,2020.1.2,MacIntel,60,0.390351563,-0.009916992,1,0,0,0.802175,26,0,248,248,288,1,7
,,,,,,0.131064453,0.00112793,1,0,0,0.53264,M,,,,,,-0.31176,0.18,,lsc,,22,female,right,mouse,yes,2021-04-08_10h38.02.913,facelocalization,2020.1.2,MacIntel,60,-0.347939453,0.180463867,1,0,0,0.66545,32,0,249,249,356,1,8
,,,,,,0.159663086,-0.029291992,1,0,0,0.5345,M,,,,,,-0.285606,0.21915,,lsc,,22,female,right,mouse,yes,2021-04-08_10h38.02.913,facelocalization,2020.1.2,MacIntel,60,-0.292592773,0.26546875,1,0,0,0.86609,8,0,250,250,67,1,2
,,,,,,0.161142578,-0.005126953,1,0,0,0.39857,M,,,,,,0.285606,-0.21915,,lsc,,22,female,right,mouse,yes,2021-04-08_10h38.02.913,facelocalization,2020.1.2,MacIntel,60,0.304570312,-0.248310547,1,0,0,0.65164,6,0,251,251,91,1,2
,,,,,,0.155698242,0.005942383,1,0,0,0.58352,M,,,,,,-0.254556,0.254556,,lsc,,22,female,right,mouse,yes,2021-04-08_10h38.02.913,facelocalization,2020.1.2,MacIntel,60,-0.264614258,0.237397461,1,0,0,0.78326,26,0,252,252,306,1,7
,,,,,,0.139824219,-0.000976563,1,0,0,0.3813,M,,,,,,-0.093168,-0.347724,,lsc,,22,female,right,mouse,yes,2021-04-08_10h38.02.913,facelocalization,2020.1.2,MacIntel,60,-0.081513672,-0.382382813,1,0,0,0.702015,27,0,253,253,322,1,7
,,,,,,-0.138085938,-0.005405273,1,0,0,0.599095,F,,,,,,0.04698,0.356904,,lsc,,22,female,right,mouse,yes,2021-04-08_10h38.02.913,facelocalization,2020.1.2,MacIntel,60,0.071508789,0.375541992,1,0,0,0.78453,30,0,254,254,347,1,8
,,,,,,0.145429687,-0.014433594,1,0,0,0.500285,M,,,,,,0,0.36,,lsc,,22,female,right,mouse,yes,2021-04-08_10h38.02.913,facelocalization,2020.1.2,MacIntel,60,0.029628906,0.38050293,1,0,0,0.766755,9,0,255,255,108,1,3
,,,,,,0.136948242,-0.011171875,1,0,0,0.56653,M,,,,,,-0.18,0.31176,,lsc,,22,female,right,mouse,yes,2021-04-08_10h38.02.913,facelocalization,2020.1.2,MacIntel,60,-0.211860352,0.341557617,1,0,0,0.83392,12,0,256,256,112,1,3
,,,,,,-0.159995117,0.00262207,1,0,0,0.450355,F,,,,,,-0.093168,0.347724,,lsc,,22,female,right,mouse,yes,2021-04-08_10h38.02.913,facelocalization,2020.1.2,MacIntel,60,-0.102128906,0.369824219,1,0,0,0.766545,18,0,257,257,206,1,5
,,,,,,-0.143354492,-0.007954102,1,0,0,0.50202,F,,,,,,-0.254556,0.254556,,lsc,,22,female,right,mouse,yes,2021-04-08_10h38.02.913,facelocalization,2020.1.2,MacIntel,60,-0.314833984,0.312607422,1,0,0,0.71715,30,0,258,258,354,1,8
,,,,,,0.154907227,0.006674805,1,0,0,0.61471,M,,,,,,0.356904,0.04698,,lsc,,22,female,right,mouse,yes,2021-04-08_10h38.02.913,facelocalization,2020.1.2,MacIntel,60,0.418076172,0.019238281,1,0,0,0.784625,27,0,259,259,289,1,7
,,,,,,0.186079102,0.002490234,1,0,0,0.331505,M,,,,,,0.36,0,,lsc,,22,female,right,mouse,yes,2021-04-08_10h38.02.913,facelocalization,2020.1.2,MacIntel,60,0.373203125,0.0040625,1,0,0,0.651115,7,0,260,260,48,1,2
,,,,,,0.160390625,-0.002495117,1,0,0,0.51542,M,,,,,,-0.137754,-0.332586,,lsc,,22,female,right,mouse,yes,2021-04-08_10h38.02.913,facelocalization,2020.1.2,MacIntel,60,-0.116801758,-0.342138672,1,0,0,0.718385,5,0,261,261,81,1,2
,,,,,,-0.171469727,0.000952148,1,0,0,0.399935,F,,,,,,-0.093168,-0.347724,,lsc,,22,female,right,mouse,yes,2021-04-08_10h38.02.913,facelocalization,2020.1.2,MacIntel,60,-0.07940918,-0.375424805,1,0,0,0.683655,4,0,262,262,34,1,1
,,,,,,-0.165361328,-0.007290039,1,0,0,0.500595,F,,,,,,0.04698,0.356904,,lsc,,22,female,right,mouse,yes,2021-04-08_10h38.02.913,facelocalization,2020.1.2,MacIntel,60,0.082949219,0.413032227,1,0,0,0.699935,4,0,263,263,11,1,1
,,,,,,0.144550781,-0.002504883,1,0,0,0.567035,M,,,,,,-0.21915,-0.285606,,lsc,,22,female,right,mouse,yes,2021-04-08_10h38.02.913,facelocalization,2020.1.2,MacIntel,60,-0.24097168,-0.332124023,1,0,0,0.683705,22,0,264,264,271,1,6
,,,,,,-0.258422852,-0.046450195,1,0,0,0.4158,F,,,,,,0.254556,0.254556,,lsc,,22,female,right,mouse,yes,2021-04-08_10h38.02.913,facelocalization,2020.1.2,MacIntel,60,0.257089844,0.23152832,1,0,0,0.70009,25,0,265,265,294,1,7
,,,,,,-0.164462891,-0.004702148,1,0,0,0.54972,F,,,,,,0.04698,-0.356904,,lsc,,22,female,right,mouse,yes,2021-04-08_10h38.02.913,facelocalization,2020.1.2,MacIntel,60,0.027861328,-0.372553711,1,0,0,0.70055,2,0,266,266,37,1,1
,,,,,,0.164111328,-0.003554688,1,0,0,0.51911,M,,,,,,-0.356904,-0.04698,,lsc,,22,female,right,mouse,yes,2021-04-08_10h38.02.913,facelocalization,2020.1.2,MacIntel,60,-0.347753906,-0.06168457,1,0,0,0.79658,26,0,267,267,313,1,7
,,,,,,0.141494141,0.013554688,1,0,0,0.533335,M,,,,,,-0.332586,0.137754,,lsc,,22,female,right,mouse,yes,2021-04-08_10h38.02.913,facelocalization,2020.1.2,MacIntel,60,-0.305576172,0.118554688,1,0,0,0.78346,22,0,268,268,261,1,6
,,,,,,0.144804688,0.012504883,1,0,0,0.647605,M,,,,,,-0.347724,-0.093168,,lsc,,22,female,right,mouse,yes,2021-04-08_10h38.02.913,facelocalization,2020.1.2,MacIntel,60,-0.327612305,-0.075854492,1,0,0,0.735715,22,0,269,269,266,1,6
,,,,,,-0.150283203,-0.02956543,1,0,0,0.482435,F,,,,,,0.137754,0.332586,,lsc,,22,female,right,mouse,yes,2021-04-08_10h38.02.913,facelocalization,2020.1.2,MacIntel,60,0.189458008,0.305400391,1,0,0,0.8189,29,0,270,270,345,1,8
,,,,,,-0.156069336,-0.032421875,1,0,0,0.36452,F,,,,,,-0.137754,-0.332586,,lsc,,22,female,right,mouse,yes,2021-04-08_10h38.02.913,facelocalization,2020.1.2,MacIntel,60,-0.135820313,-0.350693359,1,0,0,0.61602,17,0,271,271,225,1,5
,,,,,,0.164511719,0.00324707,1,0,0,0.501145,M,,,,,,-0.36,0,,lsc,,22,female,right,mouse,yes,2021-04-08_10h38.02.913,facelocalization,2020.1.2,MacIntel,60,-0.341254883,-0.009350586,1,0,0,0.64996,28,0,272,272,312,1,7
,,,,,,0.171123047,-0.000332031,1,0,0,0.381495,M,,,,,,0.093168,0.347724,,lsc,,22,female,right,mouse,yes,2021-04-08_10h38.02.913,facelocalization,2020.1.2,MacIntel,60,0.126777344,0.376791992,1,0,0,0.801535,27,0,273,273,298,1,7
,,,,,,-0.114077148,-0.047260742,1,0,0,0.4666,F,,,,,,-0.21915,0.285606,,lsc,,22,female,right,mouse,yes,2021-04-08_10h38.02.913,facelocalization,2020.1.2,MacIntel,60,-0.19097168,0.227202148,1,0,0,0.66627,25,0,274,274,305,1,7
,,,,,,-0.162236328,-0.018330078,1,0,0,0.399815,F,,,,,,0.093168,0.347724,,lsc,,22,female,right,mouse,yes,2021-04-08_10h38.02.913,facelocalization,2020.1.2,MacIntel,60,0.162041016,0.384824219,1,0,0,0.683725,8,0,275,275,58,1,2
,,,,,,0.134399414,-0.021479492,1,0,0,0.45047,M,,,,,,-0.31176,0.18,,lsc,,22,female,right,mouse,yes,2021-04-08_10h38.02.913,facelocalization,2020.1.2,MacIntel,60,-0.299541016,0.19777832,1,0,0,0.60148,11,0,276,276,116,1,3
,,,,,,-0.147124023,-0.015292969,1,0,0,0.46537,F,,,,,,0.254556,0.254556,,lsc,,22,female,right,mouse,yes,2021-04-08_10h38.02.913,facelocalization,2020.1.2,MacIntel,60,0.312539063,0.276704102,1,0,0,0.68484,20,0,277,277,198,1,5
,,,,,,-0.151000977,-0.012607422,1,0,0,0.433675,F,,,,,,-0.31176,-0.18,,lsc,,22,female,right,mouse,yes,2021-04-08_10h38.02.913,facelocalization,2020.1.2,MacIntel,60,-0.306953125,-0.198955078,1,0,0,0.64844,31,0,278,278,364,1,8
,,,,,,-0.17418457,0.012705078,1,0,0,0.331915,F,,,,,,-0.21915,-0.285606,,lsc,,22,female,right,mouse,yes,2021-04-08_10h38.02.913,facelocalization,2020.1.2,MacIntel,60,-0.237861328,-0.302587891,1,0,0,0.651395,15,0,279,279,175,1,4
,,,,,,0.149335937,0.022358398,1,0,0,0.40145,M,,,,,,0.285606,-0.21915,,lsc,,22,female,right,mouse,yes,2021-04-08_10h38.02.913,facelocalization,2020.1.2,MacIntel,60,0.342553711,-0.255732422,1,0,0,0.664905,11,0,280,280,139,1,3
,,,,,,0.166430664,-0.041333008,1,0,0,0.333565,M,,,,,,0.332586,-0.137754,,lsc,,22,female,right,mouse,yes,2021-04-08_10h38.02.913,facelocalization,2020.1.2,MacIntel,60,0.350766602,-0.177192383,1,0,0,0.615975,10,0,281,281,141,1,3
,,,,,,0.099394531,-0.027124023,1,0,0,0.416725,M,,,,,,-0.31176,-0.18,,lsc,,22,female,right,mouse,yes,2021-04-08_10h38.02.913,facelocalization,2020.1.2,MacIntel,60,-0.323759766,-0.235009766,1,0,0,0.6838,21,0,282,282,268,1,6
,,,,,,-0.203242188,0.014316406,1,0,0,0.48298,F,,,,,,0.347724,-0.093168,,lsc,,22,female,right,mouse,yes,2021-04-08_10h38.02.913,facelocalization,2020.1.2,MacIntel,60,0.405351562,-0.121181641,1,0,0,0.666345,19,0,283,283,238,1,5
,,,,,,-0.186611328,0.003051758,1,0,0,0.450325,F,,,,,,0.347724,0.093168,,lsc,,22,female,right,mouse,yes,2021-04-08_10h38.02.913,facelocalization,2020.1.2,MacIntel,60,0.334072266,0.059614258,1,0,0,0.716795,23,0,284,284,242,1,6
,,,,,,-0.153955078,-0.025458984,1,0,0,0.468535,F,,,,,,-0.04698,-0.356904,,lsc,,22,female,right,mouse,yes,2021-04-08_10h38.02.913,facelocalization,2020.1.2,MacIntel,60,-0.068959961,-0.348603516,1,0,0,0.76651,31,0,285,285,371,1,8
,,,,,,-0.11456543,-0.009453125,1,0,0,0.44751,F,,,,,,0.285606,-0.21915,,lsc,,22,female,right,mouse,yes,2021-04-08_10h38.02.913,facelocalization,2020.1.2,MacIntel,60,0.317099609,-0.217373047,1,0,0,0.800985,1,0,286,286,43,1,1
,,,,,,0.142441406,0.001665039,1,0,0,0.566615,M,,,,,,-0.18,0.31176,,lsc,,22,female,right,mouse,yes,2021-04-08_10h38.02.913,facelocalization,2020.1.2,MacIntel,60,-0.165522461,0.322182617,1,0,0,0.766405,25,0,287,287,304,1,7
,,,,,,0.122749023,-0.013032227,1,0,0,0.56487,M,,,,,,-0.332586,0.137754,,lsc,,22,female,right,mouse,yes,2021-04-08_10h38.02.913,facelocalization,2020.1.2,MacIntel,60,-0.367729492,0.210429687,1,0,0,1.11876,6,0,288,288,69,1,2
,,,,,,-0.146982422,0.020107422,1,0,0,0.383155,F,,,,,,-0.31176,-0.18,,lsc,,22,female,right,mouse,yes,2021-04-08_10h38.02.913,facelocalization,2020.1.2,MacIntel,60,-0.323564453,-0.221401367,1,0,0,0.800685,12,0,289,289,124,1,3
,,,,,,-0.114458008,-0.025126953,1,0,0,0.550925,F,,,,,,0.093168,-0.347724,,lsc,,22,female,right,mouse,yes,2021-04-08_10h38.02.913,facelocalization,2020.1.2,MacIntel,60,0.12675293,-0.393408203,1,0,0,0.66431,16,0,290,290,182,1,4
,,,,,,0.188798828,-0.009985352,1,0,0,0.516745,M,,,,,,-0.332586,-0.137754,,lsc,,22,female,right,mouse,yes,2021-04-08_10h38.02.913,facelocalization,2020.1.2,MacIntel,60,-0.343696289,-0.13875,1,0,0,0.816925,5,0,291,291,75,1,2
,,,,,,0.130571289,-0.013125,1,0,0,0.51553,M,,,,,,0.332586,-0.137754,,lsc,,22,female,right,mouse,yes,2021-04-08_10h38.02.913,facelocalization,2020.1.2,MacIntel,60,0.356196289,-0.148061523,1,0,0,0.599765,6,0,292,292,93,1,2
,,,,,,-0.150522461,-0.024858398,1,0,0,0.4832,F,,,,,,0.31176,0.18,,lsc,,22,female,right,mouse,yes,2021-04-08_10h38.02.913,facelocalization,2020.1.2,MacIntel,60,0.365761719,0.17637207,1,0,0,0.615615,8,0,293,293,52,1,2
,,,,,,-0.129130859,-0.031367187,1,0,0,0.548345,F,,,,,,-0.093168,0.347724,,lsc,,22,female,right,mouse,yes,2021-04-08_10h38.02.913,facelocalization,2020.1.2,MacIntel,60,-0.095717773,0.393037109,1,0,0,0.75146,31,0,294,294,350,1,8
,,,,,,-0.127875977,-0.000600586,1,0,0,0.46672,F,,,,,,0.356904,0.04698,,lsc,,22,female,right,mouse,yes,2021-04-08_10h38.02.913,facelocalization,2020.1.2,MacIntel,60,0.373696289,0.030888672,1,0,0,0.73331,4,0,295,295,1,1,1
,,,,,,0.171660156,0.012802734,1,0,0,0.550785,M,,,,,,-0.347724,-0.093168,,lsc,,22,female,right,mouse,yes,2021-04-08_10h38.02.913,facelocalization,2020.1.2,MacIntel,60,-0.346201172,-0.130927734,1,0,0,0.63111,6,0,296,296,74,1,2
,,,,,,-0.145888672,-0.003178711,1,0,0,0.582865,F,,,,,,0.332586,0.137754,,lsc,,22,female,right,mouse,yes,2021-04-08_10h38.02.913,facelocalization,2020.1.2,MacIntel,60,0.371279297,0.110419922,1,0,0,0.615865,18,0,297,297,195,1,5
,,,,,,0.156245117,-0.022680664,1,0,0,0.50184,M,,,,,,-0.093168,0.347724,,lsc,,22,female,right,mouse,yes,2021-04-08_10h38.02.913,facelocalization,2020.1.2,MacIntel,60,-0.10565918,0.321879883,1,0,0,0.765715,26,0,298,298,302,1,7
,,,,,,-0.156918945,-0.032802734,1,0,0,0.483885,F,,,,,,-0.137754,-0.332586,,lsc,,22,female,right,mouse,yes,2021-04-08_10h38.02.913,facelocalization,2020.1.2,MacIntel,60,-0.126689453,-0.32090332,1,0,0,0.68456,3,0,299,299,33,1,1
,,,,,,0.165410156,-0.01550293,1,0,0,0.5678,M,,,,,,0.18,-0.31176,,lsc,,22,female,right,mouse,yes,2021-04-08_10h38.02.913,facelocalization,2020.1.2,MacIntel,60,0.202241211,-0.302070312,1,0,0,0.668065,9,0,300,300,136,1,3
,,,,,,0.171977539,-0.038710938,1,0,0,0.467015,M,,,,,,0,0.36,,lsc,,22,female,right,mouse,yes,2021-04-08_10h38.02.913,facelocalization,2020.1.2,MacIntel,60,-0.004853516,0.392226562,1,0,0,0.86727,21,0,301,301,252,1,6
,,,,,,0.132744141,-0.005200195,1,0,0,0.43334,M,,,,,,0.31176,0.18,,lsc,,22,female,right,mouse,yes,2021-04-08_10h38.02.913,facelocalization,2020.1.2,MacIntel,60,0.371972656,0.157875977,1,0,0,0.70028,27,0,302,302,292,1,7
,,,,,,-0.149389648,0.010712891,1,0,0,0.383375,F,,,,,,-0.21915,0.285606,,lsc,,22,female,right,mouse,yes,2021-04-08_10h38.02.913,facelocalization,2020.1.2,MacIntel,60,-0.237509766,0.315175781,1,0,0,0.733355,2,0,303,303,17,1,1
,,,,,,0.139101562,-0.012827148,1,0,0,0.41249,M,,,,,,0.285606,0.21915,,lsc,,22,female,right,mouse,yes,2021-04-08_10h38.02.913,facelocalization,2020.1.2,MacIntel,60,0.258198242,0.188491211,1,0,0,0.616645,29,0,304,304,341,1,8
,,,,,,0.111679687,-0.008681641,1,0,0,0.63496,M,,,,,,-0.332586,0.137754,,lsc,,22,female,right,mouse,yes,2021-04-08_10h38.02.913,facelocalization,2020.1.2,MacIntel,60,-0.318818359,0.123120117,1,0,0,0.78265,25,0,305,305,309,1,7
,,,,,,-0.222929688,-0.021386719,1,0,0,0.43383,F,,,,,,0.137754,0.332586,,lsc,,22,female,right,mouse,yes,2021-04-08_10h38.02.913,facelocalization,2020.1.2,MacIntel,60,0.181660156,0.340668945,1,0,0,0.59815,23,0,306,306,249,1,6
,,,,,,0.149985352,-0.000546875,1,0,0,0.5501,M,,,,,,0.04698,0.356904,,lsc,,22,female,right,mouse,yes,2021-04-08_10h38.02.913,facelocalization,2020.1.2,MacIntel,60,0.078291016,0.327099609,1,0,0,0.63393,9,0,307,307,107,1,3
,,,,,,-0.172783203,-0.021376953,1,0,0,0.43192,F,,,,,,-0.18,-0.31176,,lsc,,22,female,right,mouse,yes,2021-04-08_10h38.02.913,facelocalization,2020.1.2,MacIntel,60,-0.165610352,-0.315214844,1,0,0,0.682025,20,0,308,308,224,1,5
,,,,,,-0.181083984,0,1,0,0,0.316395,F,,,,,,-0.356904,0.04698,,lsc,,22,female,right,mouse,yes,2021-04-08_10h38.02.913,facelocalization,2020.1.2,MacIntel,60,-0.326757813,0.036157227,1,0,0,0.65191,3,0,309,309,23,1,1
,,,,,,0.141704102,0.001879883,1,0,0,0.499985,M,,,,,,0.18,0.31176,,lsc,,22,female,right,mouse,yes,2021-04-08_10h38.02.913,facelocalization,2020.1.2,MacIntel,60,0.295253906,0.296542969,1,0,0,1.033985,24,0,310,310,248,1,6
,,,,,,0.140058594,0.026621094,1,0,0,0.449605,M,,,,,,-0.347724,-0.093168,,lsc,,22,female,right,mouse,yes,2021-04-08_10h38.02.913,facelocalization,2020.1.2,MacIntel,60,-0.335185547,-0.070043945,1,0,0,0.667155,11,0,311,311,122,1,3
,,,,,,0.134570313,0.001035156,1,0,0,0.402155,M,,,,,,-0.093168,-0.347724,,lsc,,22,female,right,mouse,yes,2021-04-08_10h38.02.913,facelocalization,2020.1.2,MacIntel,60,-0.081513672,-0.34543457,1,0,0,0.731515,6,0,312,312,82,1,2
,,,,,,-0.159541016,0.000249023,1,0,0,0.481605,F,,,,,,-0.285606,-0.21915,,lsc,,22,female,right,mouse,yes,2021-04-08_10h38.02.913,facelocalization,2020.1.2,MacIntel,60,-0.269042969,-0.236015625,1,0,0,0.766945,5,0,313,313,77,1,2
,,,,,,0.182358398,-0.023837891,1,0,0,0.44992,M,,,,,,-0.347724,0.093168,,lsc,,22,female,right,mouse,yes,2021-04-08_10h38.02.913,facelocalization,2020.1.2,MacIntel,60,-0.343642578,0.085551758,1,0,0,1.49874,22,0,314,314,262,1,6
,,,,,,-0.182646484,-0.001225586,1,0,0,0.56456,F,,,,,,0.093168,0.347724,,lsc,,22,female,right,mouse,yes,2021-04-08_10h38.02.913,facelocalization,2020.1.2,MacIntel,60,0.153364258,0.342197266,1,0,0,0.71882,12,0,315,315,106,1,3
,,,,,,0.193642578,-0.00190918,1,0,0,0.48476,M,,,,,,0.356904,-0.04698,,lsc,,22,female,right,mouse,yes,2021-04-08_10h38.02.913,facelocalization,2020.1.2,MacIntel,60,0.392128906,-0.052368164,1,0,0,0.617465,21,0,316,316,287,1,6
,,,,,,0.147636719,0.012285156,1,0,0,0.43153,M,,,,,,0.18,0.31176,,lsc,,22,female,right,mouse,yes,2021-04-08_10h38.02.913,facelocalization,2020.1.2,MacIntel,60,0.222792969,0.311254883,1,0,0,0.66691,27,0,317,317,296,1,7
,,,,,,-0.140302734,-0.04159668,1,0,0,0.366105,F,,,,,,-0.137754,-0.332586,,lsc,,22,female,right,mouse,yes,2021-04-08_10h38.02.913,facelocalization,2020.1.2,MacIntel,60,-0.130336914,-0.307729492,1,0,0,0.701335,29,0,318,318,369,1,8
,,,,,,0.140009766,0.018154297,1,0,0,0.416505,M,,,,,,0.137754,-0.332586,,lsc,,22,female,right,mouse,yes,2021-04-08_10h38.02.913,facelocalization,2020.1.2,MacIntel,60,0.143056641,-0.326489258,1,0,0,0.66755,10,0,319,319,135,1,3
,,,,,,-0.32605957,-0.028046875,1,0,0,0.63373,F,,,,,,-0.285606,-0.21915,,lsc,,22,female,right,mouse,yes,2021-04-08_10h38.02.913,facelocalization,2020.1.2,MacIntel,60,-0.256542969,-0.252944336,1,0,0,0.68345,25,0,320,320,317,1,7
,,,,,,-0.176845703,0.009931641,1,0,0,0.465275,F,,,,,,0.36,0,,lsc,,22,female,right,mouse,yes,2021-04-08_10h38.02.913,facelocalization,2020.1.2,MacIntel,60,0.43152832,-0.007612305,1,0,0,0.635265,3,0,321,321,0,1,1
,,,,,,0.139121094,0.04390625,1,0,0,0.517135,M,,,,,,0,-0.36,,lsc,,22,female,right,mouse,yes,2021-04-08_10h38.02.913,facelocalization,2020.1.2,MacIntel,60,-0.021591797,-0.392270508,1,0,0,0.73402,18,0,322,322,228,1,5
,,,,,,0.134838867,-0.004667969,1,0,0,0.500635,M,,,,,,0,0.36,,lsc,,22,female,right,mouse,yes,2021-04-08_10h38.02.913,facelocalization,2020.1.2,MacIntel,60,-0.021293945,0.370981445,1,0,0,0.649965,25,0,323,323,300,1,7
,,,,,,-0.149223633,-0.008916016,1,0,0,0.467165,F,,,,,,-0.285606,0.21915,,lsc,,22,female,right,mouse,yes,2021-04-08_10h38.02.913,facelocalization,2020.1.2,MacIntel,60,-0.254121094,0.223647461,1,0,0,0.66575,24,0,324,324,259,1,6
,,,,,,-0.173022461,0.021875,1,0,0,0.450525,F,,,,,,0.254556,-0.254556,,lsc,,22,female,right,mouse,yes,2021-04-08_10h38.02.913,facelocalization,2020.1.2,MacIntel,60,0.255561523,-0.289067383,1,0,0,0.632025,14,0,325,325,186,1,4
,,,,,,-0.181542969,0.017973633,1,0,0,0.396965,F,,,,,,0.04698,-0.356904,,lsc,,22,female,right,mouse,yes,2021-04-08_10h38.02.913,facelocalization,2020.1.2,MacIntel,60,0.089208984,-0.358671875,1,0,0,0.717505,12,0,326,326,133,1,3
,,,,,,-0.130859375,-0.020014648,1,0,0,0.500675,F,,,,,,0.18,0.31176,,lsc,,22,female,right,mouse,yes,2021-04-08_10h38.02.913,facelocalization,2020.1.2,MacIntel,60,0.220537109,0.297416992,1,0,0,0.7333,14,0,327,327,152,1,4
,,,,,,-0.152646484,0.036899414,1,0,0,0.400245,F,,,,,,-0.285606,0.21915,,lsc,,22,female,right,mouse,yes,2021-04-08_10h38.02.913,facelocalization,2020.1.2,MacIntel,60,-0.340024414,0.27581543,1,0,0,0.68295,29,0,328,328,355,1,8
,,,,,,0.1634375,-0.009951172,1,0,0,0.98358,M,,,,,,0.36,0,,lsc,,22,female,right,mouse,yes,2021-04-08_10h38.02.913,facelocalization,2020.1.2,MacIntel,60,0.388564453,-0.030019531,1,0,0,0.7834,23,0,329,329,240,1,6
,,,,,,-0.157871094,0.007861328,1,0,0,0.48307,F,,,,,,0.332586,-0.137754,,lsc,,22,female,right,mouse,yes,2021-04-08_10h38.02.913,facelocalization,2020.1.2,MacIntel,60,0.347060547,-0.167885742,1,0,0,0.717155,30,0,330,330,381,1,8
,,,,,,-0.188198242,-0.016904297,1,0,0,0.45132,F,,,,,,0.18,0.31176,,lsc,,22,female,right,mouse,yes,2021-04-08_10h38.02.913,facelocalization,2020.1.2,MacIntel,60,0.23190918,0.316855469,1,0,0,0.66603,17,0,331,331,200,1,5
,,,,,,0.099438477,0.011474609,1,0,0,0.398335,M,,,,,,0.347724,-0.093168,,lsc,,22,female,right,mouse,yes,2021-04-08_10h38.02.913,facelocalization,2020.1.2,MacIntel,60,0.318525391,-0.086782227,1,0,0,0.884855,7,0,332,332,94,1,2
,,,,,,-0.155830078,-0.0165625,1,0,0,0.466685,F,,,,,,0.347724,0.093168,,lsc,,22,female,right,mouse,yes,2021-04-08_10h38.02.913,facelocalization,2020.1.2,MacIntel,60,0.385332031,0.069785156,1,0,0,0.732225,15,0,333,333,146,1,4
,,,,,,0.143515625,-0.033500977,1,0,0,0.417205,M,,,,,,-0.093168,0.347724,,lsc,,22,female,right,mouse,yes,2021-04-08_10h38.02.913,facelocalization,2020.1.2,MacIntel,60,-0.101577148,0.35894043,1,0,0,0.650595,22,0,334,334,254,1,6
,,,,,,0.135571289,-0.018134766,1,0,0,0.40067,M,,,,,,0.347724,-0.093168,,lsc,,22,female,right,mouse,yes,2021-04-08_10h38.02.913,facelocalization,2020.1.2,MacIntel,60,0.390693359,-0.141513672,1,0,0,0.650235,29,0,335,335,382,1,8
,,,,,,-0.12328125,0.005961914,1,0,0,0.433695,F,,,,,,0.254556,-0.254556,,lsc,,22,female,right,mouse,yes,2021-04-08_10h38.02.913,facelocalization,2020.1.2,MacIntel,60,0.25684082,-0.266079102,1,0,0,0.601015,1,0,336,336,42,1,1
,,,,,,0.191787109,-0.029790039,1,0,0,0.316705,M,,,,,,0.31176,-0.18,,lsc,,22,female,right,mouse,yes,2021-04-08_10h38.02.913,facelocalization,2020.1.2,MacIntel,60,0.329697266,-0.194990234,1,0,0,0.6849,2,0,337,337,44,1,1
,,,,,,0.116489258,0.055336914,1,0,0,0.281805,M,,,,,,0.347724,0.093168,,lsc,,22,female,right,mouse,yes,2021-04-08_10h38.02.913,facelocalization,2020.1.2,MacIntel,60,0.405024414,0.052202148,1,0,0,0.58532,27,0,338,338,290,1,7
,,,,,,-0.183339844,-0.00815918,1,0,0,0.283045,F,,,,,,-0.36,0,,lsc,,22,female,right,mouse,yes,2021-04-08_10h38.02.913,facelocalization,2020.1.2,MacIntel,60,-0.317871094,-0.005073242,1,0,0,0.76534,18,0,339,339,216,1,5
,,,,,,-0.182592773,-0.031142578,1,0,0,0.455095,F,,,,,,-0.31176,0.18,,lsc,,22,female,right,mouse,yes,2021-04-08_10h38.02.913,facelocalization,2020.1.2,MacIntel,60,-0.329233398,0.171274414,1,0,0,0.616445,17,0,340,340,212,1,5
,,,,,,-0.160170898,-0.012670898,1,0,0,0.549595,F,,,,,,0,-0.36,,lsc,,22,female,right,mouse,yes,2021-04-08_10h38.02.913,facelocalization,2020.1.2,MacIntel,60,0.038837891,-0.34402832,1,0,0,0.816485,28,0,341,341,324,1,7
,,,,,,-0.134887695,0.018696289,1,0,0,0.50139,F,,,,,,0.285606,0.21915,,lsc,,22,female,right,mouse,yes,2021-04-08_10h38.02.913,facelocalization,2020.1.2,MacIntel,60,0.293515625,0.201904297,1,0,0,0.86726,20,0,342,342,197,1,5
,,,,,,0.136889648,-0.026333008,1,0,0,0.416175,M,,,,,,0.21915,0.285606,,lsc,,22,female,right,mouse,yes,2021-04-08_10h38.02.913,facelocalization,2020.1.2,MacIntel,60,0.281411133,0.305410156,1,0,0,0.71698,11,0,343,343,103,1,3
,,,,,,0.147114258,-0.032578125,1,0,0,0.483115,M,,,,,,-0.137754,0.332586,,lsc,,22,female,right,mouse,yes,2021-04-08_10h38.02.913,facelocalization,2020.1.2,MacIntel,60,-0.121010742,0.327607422,1,0,0,0.784625,27,0,344,344,303,1,7
,,,,,,-0.165693359,-0.036928711,1,0,0,0.46689,F,,,,,,0.254556,0.254556,,lsc,,22,female,right,mouse,yes,2021-04-08_10h38.02.913,facelocalization,2020.1.2,MacIntel,60,0.324711914,0.218081055,1,0,0,0.750435,23,0,345,345,246,1,6
,,,,,,0.174707031,0.002480469,1,0,0,0.400405,M,,,,,,0.332586,-0.137754,,lsc,,22,female,right,mouse,yes,2021-04-08_10h38.02.913,facelocalization,2020.1.2,MacIntel,60,0.392294922,-0.157851562,1,0,0,0.649275,25,0,346,346,333,1,7
,,,,,,-0.181782227,-0.001694336,1,0,0,0.41669,F,,,,,,-0.04698,-0.356904,,lsc,,22,female,right,mouse,yes,2021-04-08_10h38.02.913,facelocalization,2020.1.2,MacIntel,60,-0.066665039,-0.364350586,1,0,0,0.667265,17,0,347,347,227,1,5
,,,,,,0.203139648,-0.034672852,1,0,0,0.48335,M,,,,,,-0.137754,0.332586,,lsc,,22,female,right,mouse,yes,2021-04-08_10h38.02.913,facelocalization,2020.1.2,MacIntel,60,-0.095537109,0.332548828,1,0,0,0.716045,8,0,348,348,63,1,2
,,,,,,0.180825195,0.009570313,1,0,0,0.416855,M,,,,,,0.31176,-0.18,,lsc,,22,female,right,mouse,yes,2021-04-08_10h38.02.913,facelocalization,2020.1.2,MacIntel,60,0.360332031,-0.18546875,1,0,0,0.78233,5,0,349,349,92,1,2
,,,,,,-0.168833008,-0.029604492,1,0,0,0.467135,F,,,,,,-0.31176,0.18,,lsc,,22,female,right,mouse,yes,2021-04-08_10h38.02.913,facelocalization,2020.1.2,MacIntel,60,-0.325341797,0.184047852,1,0,0,0.88194,2,0,350,350,20,1,1
,,,,,,0.188056641,0.002802734,1,0,0,0.41583,M,,,,,,0.347724,0.093168,,lsc,,22,female,right,mouse,yes,2021-04-08_10h38.02.913,facelocalization,2020.1.2,MacIntel,60,0.378056641,0.049848633,1,0,0,0.833755,7,0,351,351,50,1,2
,,,,,,-0.180830078,0.007158203,1,0,0,0.51571,F,,,,,,0.347724,0.093168,,lsc,,22,female,right,mouse,yes,2021-04-08_10h38.02.913,facelocalization,2020.1.2,MacIntel,60,0.348374023,0.062993164,1,0,0,0.65085,19,0,352,352,194,1,5
,,,,,,-0.106542969,-0.025766602,1,0,0,0.58328,F,,,,,,0.21915,-0.285606,,lsc,,22,female,right,mouse,yes,2021-04-08_10h38.02.913,facelocalization,2020.1.2,MacIntel,60,0.230380859,-0.281503906,1,0,0,0.734515,3,0,353,353,41,1,1
,,,,,,0.198964844,-0.038100586,1,0,0,0.383245,M,,,,,,0.332586,-0.137754,,lsc,,22,female,right,mouse,yes,2021-04-08_10h38.02.913,facelocalization,2020.1.2,MacIntel,60,0.356650391,-0.119628906,1,0,0,0.664165,16,0,354,354,189,1,4
,,,,,,0.119541016,0.025224609,1,0,0,0.400385,M,,,,,,-0.347724,0.093168,,lsc,,22,female,right,mouse,yes,2021-04-08_10h38.02.913,facelocalization,2020.1.2,MacIntel,60,-0.350976562,0.077724609,1,0,0,0.83354,26,0,355,355,310,1,7
,,,,,,-0.161318359,0.008310547,1,0,0,0.316945,F,,,,,,-0.356904,-0.04698,,lsc,,22,female,right,mouse,yes,2021-04-08_10h38.02.913,facelocalization,2020.1.2,MacIntel,60,-0.320585937,-0.053491211,1,0,0,0.649865,30,0,356,356,361,1,8
,,,,,,-0.171523437,-0.007270508,1,0,0,0.549955,F,,,,,,0.093168,-0.347724,,lsc,,22,female,right,mouse,yes,2021-04-08_10h38.02.913,facelocalization,2020.1.2,MacIntel,60,0.118208008,-0.370229492,1,0,0,0.667165,32,0,357,357,374,1,8
,,,,,,0.16449707,-0.035908203,1,0,0,0.44825,M,,,,,,0.093168,0.347724,,lsc,,22,female,right,mouse,yes,2021-04-08_10h38.02.913,facelocalization,2020.1.2,MacIntel,60,0.098725586,0.352763672,1,0,0,0.71807,16,0,358,358,154,1,4
,,,,,,-0.156777344,0.002529297,1,0,0,0.50083,F,,,,,,0.137754,-0.332586,,lsc,,22,female,right,mouse,yes,2021-04-08_10h38.02.913,facelocalization,2020.1.2,MacIntel,60,0.171621094,-0.386557617,1,0,0,0.601475,13,0,359,359,183,1,4
,,,,,,-0.155800781,-0.011713867,1,0,0,0.38282,F,,,,,,-0.347724,-0.093168,,lsc,,22,female,right,mouse,yes,2021-04-08_10h38.02.913,facelocalization,2020.1.2,MacIntel,60,-0.365756836,-0.097475586,1,0,0,0.600455,29,0,360,360,362,1,8
,,,,,,0.129501953,0.018823242,1,0,0,0.36753,M,,,,,,0.285606,0.21915,,lsc,,22,female,right,mouse,yes,2021-04-08_10h38.02.913,facelocalization,2020.1.2,MacIntel,60,0.314091797,0.192563477,1,0,0,0.847535,2,0,361,361,5,1,1
,,,,,,-0.157792969,-0.01371582,1,0,0,0.41696,F,,,,,,-0.21915,-0.285606,,lsc,,22,female,right,mouse,yes,2021-04-08_10h38.02.913,facelocalization,2020.1.2,MacIntel,60,-0.206547852,-0.284174805,1,0,0,0.699845,19,0,362,362,223,1,5
,,,,,,-0.135712891,0.007192383,1,0,0,0.749385,F,,,,,,-0.137754,-0.332586,,lsc,,22,female,right,mouse,yes,2021-04-08_10h38.02.913,facelocalization,2020.1.2,MacIntel,60,-0.115097656,-0.309482422,1,0,0,0.667305,21,0,363,363,273,1,6
,,,,,,0.132509766,0.022202148,1,0,0,0.39959,M,,,,,,0.093168,-0.347724,,lsc,,22,female,right,mouse,yes,2021-04-08_10h38.02.913,facelocalization,2020.1.2,MacIntel,60,0.108662109,-0.369819336,1,0,0,0.751165,5,0,364,364,86,1,2
,,,,,,0.201787109,0.043066406,1,0,0,0.449895,M,,,,,,-0.18,-0.31176,,lsc,,22,female,right,mouse,yes,2021-04-08_10h38.02.913,facelocalization,2020.1.2,MacIntel,60,-0.122392578,-0.263022461,1,0,0,0.683575,26,0,365,365,320,1,7
,,,,,,0.133481445,0.026967773,1,0,0,0.56469,M,,,,,,-0.21915,0.285606,,lsc,,22,female,right,mouse,yes,2021-04-08_10h38.02.913,facelocalization,2020.1.2,MacIntel,60,-0.223608398,0.322700195,1,0,0,0.802555,32,0,366,366,353,1,8
,,,,,,0.143491211,-0.002885742,1,0,0,0.51505,M,,,,,,0.21915,0.285606,,lsc,,22,female,right,mouse,yes,2021-04-08_10h38.02.913,facelocalization,2020.1.2,MacIntel,60,0.230166016,0.208637695,1,0,0,0.685045,18,0,367,367,199,1,5
,,,,,,0.137373047,0.017182617,1,0,0,0.349265,M,,,,,,0,-0.36,,lsc,,22,female,right,mouse,yes,2021-04-08_10h38.02.913,facelocalization,2020.1.2,MacIntel,60,0.00590332,-0.366201172,1,0,0,0.667055,7,0,368,368,84,1,2
,,,,,,-0.154902344,-0.028813477,1,0,0,0.41758,F,,,,,,-0.04698,0.356904,,lsc,,22,female,right,mouse,yes,2021-04-08_10h38.02.913,facelocalization,2020.1.2,MacIntel,60,-0.024868164,0.418291016,1,0,0,0.71624,28,0,369,369,301,1,7
,,,,,,0.148442383,0.002353516,1,0,0,0.36669,M,,,,,,0.254556,0.254556,,lsc,,22,female,right,mouse,yes,2021-04-08_10h38.02.913,facelocalization,2020.1.2,MacIntel,60,0.333261719,0.232724609,1,0,0,0.86694,11,0,370,370,102,1,3
,,,,,,0.142060547,0.013330078,1,0,0,0.483925,M,,,,,,0.093168,-0.347724,,lsc,,22,female,right,mouse,yes,2021-04-08_10h38.02.913,facelocalization,2020.1.2,MacIntel,60,0.059794922,-0.356518555,1,0,0,0.80001,10,0,371,371,134,1,3
,,,,,,-0.199511719,-0.006186523,1,0,0,0.264875,F,,,,,,-0.347724,-0.093168,,lsc,,22,female,right,mouse,yes,2021-04-08_10h38.02.913,facelocalization,2020.1.2,MacIntel,60,-0.361943359,-0.058691406,1,0,0,0.750685,17,0,372,372,218,1,5
,,,,,,-0.166743164,-0.00706543,1,0,0,0.366515,F,,,,,,-0.332586,-0.137754,,lsc,,22,female,right,mouse,yes,2021-04-08_10h38.02.913,facelocalization,2020.1.2,MacIntel,60,-0.331162109,-0.124511719,1,0,0,0.66678,30,0,373,373,363,1,8
,,,,,,0.141040039,-0.031357422,1,0,0,0.449265,M,,,,,,-0.21915,0.285606,,lsc,,22,female,right,mouse,yes,2021-04-08_10h38.02.913,facelocalization,2020.1.2,MacIntel,60,-0.238833008,0.27421875,1,0,0,0.66671,22,0,374,374,257,1,6
,,,,,,-0.125424805,-0.03206543,1,0,0,0.48344,F,,,,,,0.31176,0.18,,lsc,,22,female,right,mouse,yes,2021-04-08_10h38.02.913,facelocalization,2020.1.2,MacIntel,60,0.365981445,0.152744141,1,0,0,0.583305,1,0,375,375,4,1,1
,,,,,,0.164282227,-0.016064453,1,0,0,0.31698,M,,,,,,0.285606,-0.21915,,lsc,,22,female,right,mouse,yes,2021-04-08_10h38.02.913,facelocalization,2020.1.2,MacIntel,60,0.252524414,-0.236328125,1,0,0,0.63095,25,0,376,376,331,1,7
,,,,,,0.167143555,0.015263672,1,0,0,0.350515,M,,,,,,0.356904,0.04698,,lsc,,22,female,right,mouse,yes,2021-04-08_10h38.02.913,facelocalization,2020.1.2,MacIntel,60,0.410810547,0.031499023,1,0,0,0.54807,12,0,377,377,97,1,3
,,,,,,-0.19105957,0.005786133,1,0,0,0.41717,F,,,,,,-0.332586,0.137754,,lsc,,22,female,right,mouse,yes,2021-04-08_10h38.02.913,facelocalization,2020.1.2,MacIntel,60,-0.350004883,0.144072266,1,0,0,0.833625,19,0,378,378,213,1,5
,,,,,,-0.138295898,-0.016943359,1,0,0,0.48372,F,,,,,,-0.137754,0.332586,,lsc,,22,female,right,mouse,yes,2021-04-08_10h38.02.913,facelocalization,2020.1.2,MacIntel,60,-0.166411133,0.321811523,1,0,0,0.64996,4,0,379,379,15,1,1
,,,,,,0.091933594,0.019960938,1,0,0,0.46557,M,,,,,,-0.347724,0.093168,,lsc,,22,female,right,mouse,yes,2021-04-08_10h38.02.913,facelocalization,2020.1.2,MacIntel,60,-0.369868164,0.114716797,1,0,0,0.668625,29,0,380,380,358,1,8
,,,,,,0.144848633,0.002397461,1,0,0,1.08498,M,,,,,,-0.04698,0.356904,,lsc,,22,female,right,mouse,yes,2021-04-08_10h38.02.913,facelocalization,2020.1.2,MacIntel,60,-0.019106445,0.338022461,1,0,0,0.733675,11,0,381,381,109,1,3
,,,,,,-0.163168945,0.001547852,1,0,0,0.582795,F,,,,,,0.332586,0.137754,,lsc,,22,female,right,mouse,yes,2021-04-08_10h38.02.913,facelocalization,2020.1.2,MacIntel,60,0.359228516,0.113540039,1,0,0,0.71654,8,0,382,382,51,1,2
,,,,,,0.128979492,0.003305664,1,0,0,0.450325,M,,,,,,-0.332586,0.137754,,lsc,,22,female,right,mouse,yes,2021-04-08_10h38.02.913,facelocalization,2020.1.2,MacIntel,60,-0.323286133,0.124790039,1,0,0,0.73337,10,0,383,383,117,1,3
,,,,,,-0.168916016,0.016791992,1,0,0,0.54629,F,,,,,,0.21915,0.285606,,lsc,,22,female,right,mouse,yes,2021-04-08_10h38.02.913,facelocalization,2020.1.2,MacIntel,60,0.284667969,0.270170898,1,0,0,0.76445,8,1,0,384,55,1,2
,,,,,,-0.191206055,-0.002758789,1,0,0,0.550515,F,,,,,,0.347724,0.093168,,lsc,,22,female,right,mouse,yes,2021-04-08_10h38.02.913,facelocalization,2020.1.2,MacIntel,60,0.364277344,0.080263672,1,0,0,0.80054,2,1,1,385,2,1,1
,,,,,,-0.158251953,0.019042969,1,0,0,0.59963,F,,,,,,-0.356904,0.04698,,lsc,,22,female,right,mouse,yes,2021-04-08_10h38.02.913,facelocalization,2020.1.2,MacIntel,60,-0.356386719,0.05390625,1,0,0,0.61714,28,1,2,386,311,1,7
,,,,,,0.14296875,-0.006704102,1,0,0,0.467335,M,,,,,,-0.18,-0.31176,,lsc,,22,female,right,mouse,yes,2021-04-08_10h38.02.913,facelocalization,2020.1.2,MacIntel,60,-0.176772461,-0.32347168,1,0,0,0.749125,8,1,3,387,80,1,2
,,,,,,0.112060547,0.000527344,1,0,0,0.43321,M,,,,,,0.356904,0.04698,,lsc,,22,female,right,mouse,yes,2021-04-08_10h38.02.913,facelocalization,2020.1.2,MacIntel,60,0.352983398,0.028632813,1,0,0,0.70036,24,1,4,388,241,1,6
,,,,,,-0.140854492,-0.019716797,1,0,0,0.418285,F,,,,,,-0.18,-0.31176,,lsc,,22,female,right,mouse,yes,2021-04-08_10h38.02.913,facelocalization,2020.1.2,MacIntel,60,-0.174526367,-0.311650391,1,0,0,0.90051,31,1,5,389,368,1,8
,,,,,,0.142211914,0.014018555,1,0,0,0.581585,M,,,,,,-0.254556,0.254556,,lsc,,22,female,right,mouse,yes,2021-04-08_10h38.02.913,facelocalization,2020.1.2,MacIntel,60,-0.275864258,0.264086914,1,0,0,0.74965,2,1,6,390,18,1,1
,,,,,,-0.129599609,0.022856445,1,0,0,0.46642,F,,,,,,0.254556,-0.254556,,lsc,,22,female,right,mouse,yes,2021-04-08_10h38.02.913,facelocalization,2020.1.2,MacIntel,60,0.280859375,-0.271264648,1,0,0,0.750505,29,1,7,391,378,1,8
,,,,,,0.126191406,0.017285156,1,0,0,0.468225,M,,,,,,0.093168,-0.347724,,lsc,,22,female,right,mouse,yes,2021-04-08_10h38.02.913,facelocalization,2020.1.2,MacIntel,60,0.109829102,-0.358017578,1,0,0,0.767375,8,1,8,392,86,1,2
,,,,,,-0.151601563,0.012495117,1,0,0,0.39946,F,,,,,,-0.137754,-0.332586,,lsc,,22,female,right,mouse,yes,2021-04-08_10h38.02.913,facelocalization,2020.1.2,MacIntel,60,-0.122817383,-0.375161133,1,0,0,0.65191,29,1,9,393,369,1,8
,,,,,,-0.105615234,0.016586914,1,0,0,0.535015,F,,,,,,0,0.36,,lsc,,22,female,right,mouse,yes,2021-04-08_10h38.02.913,facelocalization,2020.1.2,MacIntel,60,0.007485352,0.391015625,1,0,0,0.766665,29,1,10,394,348,1,8
,,,,,,0.177612305,-0.004423828,1,0,0,0.533195,M,,,,,,0,-0.36,,lsc,,22,female,right,mouse,yes,2021-04-08_10h38.02.913,facelocalization,2020.1.2,MacIntel,60,-0.014316406,-0.411962891,1,0,0,0.70005,17,1,11,395,228,1,5
,,,,,,-0.199379883,0.010551758,1,0,0,0.532565,F,,,,,,-0.347724,0.093168,,lsc,,22,female,right,mouse,yes,2021-04-08_10h38.02.913,facelocalization,2020.1.2,MacIntel,60,-0.388637695,0.080415039,1,0,0,0.898355,18,1,12,396,214,1,5
,,,,,,-0.174594727,0.019350586,1,0,0,0.4174,F,,,,,,0.04698,-0.356904,,lsc,,22,female,right,mouse,yes,2021-04-08_10h38.02.913,facelocalization,2020.1.2,MacIntel,60,0.022109375,-0.398110352,1,0,0,0.750105,2,1,13,397,37,1,1
,,,,,,0.161645508,-0.004790039,1,0,0,0.4174,M,,,,,,0.31176,-0.18,,lsc,,22,female,right,mouse,yes,2021-04-08_10h38.02.913,facelocalization,2020.1.2,MacIntel,60,0.321606445,-0.194248047,1,0,0,0.733185,5,1,14,398,92,1,2
,,,,,,-0.170258789,-0.021845703,1,0,0,0.533665,F,,,,,,0.04698,0.356904,,lsc,,22,female,right,mouse,yes,2021-04-08_10h38.02.913,facelocalization,2020.1.2,MacIntel,60,0.039985352,0.364677734,1,0,0,0.73397,13,1,15,399,155,1,4
,,,,,,0.163950195,-0.005366211,1,0,0,0.366935,M,,,,,,0.254556,-0.254556,,lsc,,22,female,right,mouse,yes,2021-04-08_10h38.02.913,facelocalization,2020.1.2,MacIntel,60,0.279125977,-0.267075195,1,0,0,0.750255,7,1,16,400,90,1,2
,,,,,,-0.158017578,-0.015205078,1,0,0,0.4829,F,,,,,,-0.36,0,,lsc,,22,female,right,mouse,yes,2021-04-08_10h38.02.913,facelocalization,2020.1.2,MacIntel,60,-0.319135742,0.002514648,1,0,0,0.79854,28,1,17,401,312,1,7
,,,,,,-0.106547852,0.025717773,1,0,0,0.38339,F,,,,,,-0.356904,0.04698,,lsc,,22,female,right,mouse,yes,2021-04-08_10h38.02.913,facelocalization,2020.1.2,MacIntel,60,-0.382050781,0.013808594,1,0,0,0.681985,23,1,18,402,263,1,6
,,,,,,0.145708008,-0.050263672,1,0,0,0.36576,M,,,,,,0.137754,-0.332586,,lsc,,22,female,right,mouse,yes,2021-04-08_10h38.02.913,facelocalization,2020.1.2,MacIntel,60,0.131533203,-0.351318359,1,0,0,0.666055,10,1,19,403,135,1,3
,,,,,,-0.149130859,0.059453125,1,0,0,0.44799,F,,,,,,-0.04698,0.356904,,lsc,,22,female,right,mouse,yes,2021-04-08_10h38.02.913,facelocalization,2020.1.2,MacIntel,60,-0.064536133,0.348325195,1,0,0,0.7997,10,1,20,404,109,1,3
,,,,,,0.14012207,0.00574707,1,0,0,0.50025,M,,,,,,0.093168,0.347724,,lsc,,22,female,right,mouse,yes,2021-04-08_10h38.02.913,facelocalization,2020.1.2,MacIntel,60,0.127910156,0.369819336,1,0,0,0.80037,27,1,21,405,298,1,7
,,,,,,0.152231445,0.00934082,1,0,0,0.381545,M,,,,,,-0.093168,-0.347724,,lsc,,22,female,right,mouse,yes,2021-04-08_10h38.02.913,facelocalization,2020.1.2,MacIntel,60,-0.09394043,-0.366025391,1,0,0,0.652465,26,1,22,406,322,1,7
,,,,,,0.156054688,0.001186523,1,0,0,0.51575,M,,,,,,-0.356904,0.04698,,lsc,,22,female,right,mouse,yes,2021-04-08_10h38.02.913,facelocalization,2020.1.2,MacIntel,60,-0.36503418,0.041376953,1,0,0,0.78507,6,1,23,407,71,1,2
,,,,,,0.151733398,0.01190918,1,0,0,0.38415,M,,,,,,0,-0.36,,lsc,,22,female,right,mouse,yes,2021-04-08_10h38.02.913,facelocalization,2020.1.2,MacIntel,60,0.008134766,-0.369482422,1,0,0,0.61644,10,1,24,408,132,1,3
,,,,,,-0.144379883,0.030991211,1,0,0,0.549925,F,,,,,,-0.093168,0.347724,,lsc,,22,female,right,mouse,yes,2021-04-08_10h38.02.913,facelocalization,2020.1.2,MacIntel,60,-0.073393555,0.395,1,0,0,0.766605,23,1,25,409,254,1,6
,,,,,,-0.184174805,0.002661133,1,0,0,0.483335,F,,,,,,0.21915,0.285606,,lsc,,22,female,right,mouse,yes,2021-04-08_10h38.02.913,facelocalization,2020.1.2,MacIntel,60,0.229458008,0.297285156,1,0,0,0.7327,2,1,26,410,7,1,1
,,,,,,0.122314453,-0.023305664,1,0,0,0.44988,M,,,,,,-0.137754,-0.332586,,lsc,,22,female,right,mouse,yes,2021-04-08_10h38.02.913,facelocalization,2020.1.2,MacIntel,60,-0.149433594,-0.352094727,1,0,0,0.750175,26,1,27,411,321,1,7
,,,,,,0.098813477,0.002514648,1,0,0,0.43289,M,,,,,,-0.347724,-0.093168,,lsc,,22,female,right,mouse,yes,2021-04-08_10h38.02.913,facelocalization,2020.1.2,MacIntel,60,-0.360546875,-0.079599609,1,0,0,0.64885,27,1,28,412,314,1,7
,,,,,,0.153945312,-0.026923828,1,0,0,0.450335,M,,,,,,0.347724,0.093168,,lsc,,22,female,right,mouse,yes,2021-04-08_10h38.02.913,facelocalization,2020.1.2,MacIntel,60,0.412338867,0.063823242,1,0,0,0.782875,21,1,29,413,242,1,6
,,,,,,0.147929687,0.027480469,1,0,0,0.36509,M,,,,,,0.137754,-0.332586,,lsc,,22,female,right,mouse,yes,2021-04-08_10h38.02.913,facelocalization,2020.1.2,MacIntel,60,0.13715332,-0.337133789,1,0,0,0.650945,5,1,30,414,87,1,2
,,,,,,0.172148438,0.003286133,1,0,0,0.56689,M,,,,,,0.18,0.31176,,lsc,,22,female,right,mouse,yes,2021-04-08_10h38.02.913,facelocalization,2020.1.2,MacIntel,60,0.212924805,0.315517578,1,0,0,0.716795,9,1,31,415,104,1,3
,,,,,,0.169301758,0.002636719,1,0,0,0.416545,M,,,,,,0,-0.36,,lsc,,22,female,right,mouse,yes,2021-04-08_10h38.02.913,facelocalization,2020.1.2,MacIntel,60,0.0021875,-0.395947266,1,0,0,0.650605,8,1,32,416,84,1,2
,,,,,,-0.147119141,0.008188477,1,0,0,0.468695,F,,,,,,-0.21915,0.285606,,lsc,,22,female,right,mouse,yes,2021-04-08_10h38.02.913,facelocalization,2020.1.2,MacIntel,60,-0.245083008,0.282524414,1,0,0,0.766675,32,1,33,417,353,1,8
,,,,,,-0.169433594,0.002973633,1,0,0,0.399725,F,,,,,,-0.21915,-0.285606,,lsc,,22,female,right,mouse,yes,2021-04-08_10h38.02.913,facelocalization,2020.1.2,MacIntel,60,-0.254052734,-0.3234375,1,0,0,0.66412,4,1,34,418,31,1,1
,,,,,,0.175869141,-0.027241211,1,0,0,0.56669,M,,,,,,-0.18,0.31176,,lsc,,22,female,right,mouse,yes,2021-04-08_10h38.02.913,facelocalization,2020.1.2,MacIntel,60,-0.154379883,0.343046875,1,0,0,0.7332,24,1,35,419,256,1,6
,,,,,,-0.147451172,-0.016269531,1,0,0,0.483495,F,,,,,,-0.347724,0.093168,,lsc,,22,female,right,mouse,yes,2021-04-08_10h38.02.913,facelocalization,2020.1.2,MacIntel,60,-0.368671875,0.070639648,1,0,0,0.898605,13,1,36,420,166,1,4
,,,,,,-0.184536133,-0.001665039,1,0,0,0.66917,F,,,,,,0.36,0,,lsc,,22,female,right,mouse,yes,2021-04-08_10h38.02.913,facelocalization,2020.1.2,MacIntel,60,0.446254883,-0.00769043,1,0,0,0.63286,17,1,37,421,192,1,5
,,,,,,0.127329102,0.062099609,1,0,0,0.39959,M,,,,,,0.21915,-0.285606,,lsc,,22,female,right,mouse,yes,2021-04-08_10h38.02.913,facelocalization,2020.1.2,MacIntel,60,0.223681641,-0.322041016,1,0,0,0.684415,30,1,38,422,377,1,8
,,,,,,-0.158071289,0.016313477,1,0,0,0.39795,F,,,,,,-0.04698,-0.356904,,lsc,,22,female,right,mouse,yes,2021-04-08_10h38.02.913,facelocalization,2020.1.2,MacIntel,60,-0.021762695,-0.392543945,1,0,0,0.56913,23,1,39,423,275,1,6
,,,,,,-0.153027344,0.009863281,1,0,0,0.49771,F,,,,,,-0.285606,0.21915,,lsc,,22,female,right,mouse,yes,2021-04-08_10h38.02.913,facelocalization,2020.1.2,MacIntel,60,-0.341889648,0.231381836,1,0,0,0.76864,14,1,40,424,163,1,4
,,,,,,-0.146567383,0.03831543,1,0,0,0.551195,F,,,,,,0.285606,0.21915,,lsc,,22,female,right,mouse,yes,2021-04-08_10h38.02.913,facelocalization,2020.1.2,MacIntel,60,0.330952148,0.225063477,1,0,0,0.89952,1,1,41,425,5,1,1
,,,,,,-0.153862305,0.035385742,1,0,0,0.56478,F,,,,,,-0.21915,-0.285606,,lsc,,22,female,right,mouse,yes,2021-04-08_10h38.02.913,facelocalization,2020.1.2,MacIntel,60,-0.216420898,-0.306850586,1,0,0,0.65169,29,1,42,426,367,1,8
,,,,,,0.134003906,0.002280273,1,0,0,0.54917,M,,,,,,-0.137754,0.332586,,lsc,,22,female,right,mouse,yes,2021-04-08_10h38.02.913,facelocalization,2020.1.2,MacIntel,60,-0.147719727,0.304228516,1,0,0,0.71693,20,1,43,427,207,1,5
,,,,,,0.121977539,-0.017080078,1,0,0,0.333205,M,,,,,,0.347724,-0.093168,,lsc,,22,female,right,mouse,yes,2021-04-08_10h38.02.913,facelocalization,2020.1.2,MacIntel,60,0.371030273,-0.125771484,1,0,0,0.566765,15,1,44,428,190,1,4
,,,,,,0.151928711,0.047856445,1,0,0,0.352205,M,,,,,,0.137754,-0.332586,,lsc,,22,female,right,mouse,yes,2021-04-08_10h38.02.913,facelocalization,2020.1.2,MacIntel,60,0.148334961,-0.396513672,1,0,0,0.649765,22,1,45,429,279,1,6
,,,,,,-0.153491211,0.013647461,1,0,0,0.55006,F,,,,,,0.21915,0.285606,,lsc,,22,female,right,mouse,yes,2021-04-08_10h38.02.913,facelocalization,2020.1.2,MacIntel,60,0.257192383,0.276645508,1,0,0,0.683025,15,1,46,430,151,1,4
,,,,,,-0.171845703,-0.026601562,1,0,0,0.33372,F,,,,,,-0.356904,-0.04698,,lsc,,22,female,right,mouse,yes,2021-04-08_10h38.02.913,facelocalization,2020.1.2,MacIntel,60,-0.382016602,-0.065073242,1,0,0,0.64784,14,1,47,431,169,1,4
,,,,,,-0.12324707,-0.001054688,1,0,0,0.4996,F,,,,,,0.18,0.31176,,lsc,,22,female,right,mouse,yes,2021-04-08_10h38.02.913,facelocalization,2020.1.2,MacIntel,60,0.241396484,0.308129883,1,0,0,0.700075,29,1,48,432,344,1,8
,,,,,,0.141899414,0.006044922,1,0,0,0.734435,M,,,,,,-0.347724,0.093168,,lsc,,22,female,right,mouse,yes,2021-04-08_10h38.02.913,facelocalization,2020.1.2,MacIntel,60,-0.368930664,0.100605469,1,0,0,0.64863,2,1,49,433,22,1,1
,,,,,,0.157460938,0.006010742,1,0,0,0.36869,M,,,,,,0.21915,-0.285606,,lsc,,22,female,right,mouse,yes,2021-04-08_10h38.02.913,facelocalization,2020.1.2,MacIntel,60,0.2175,-0.331420898,1,0,0,0.59925,27,1,50,434,329,1,7
,,,,,,-0.151137695,0.003193359,1,0,0,0.516885,F,,,,,,0.093168,0.347724,,lsc,,22,female,right,mouse,yes,2021-04-08_10h38.02.913,facelocalization,2020.1.2,MacIntel,60,0.11690918,0.382211914,1,0,0,0.68299,31,1,51,435,346,1,8
,,,,,,-0.138925781,-0.018881836,1,0,0,0.583465,F,,,,,,-0.18,-0.31176,,lsc,,22,female,right,mouse,yes,2021-04-08_10h38.02.913,facelocalization,2020.1.2,MacIntel,60,-0.193598633,-0.297128906,1,0,0,0.765205,1,1,52,436,32,1,1
,,,,,,-0.18262207,-0.012387695,1,0,0,0.44803,F,,,,,,0.254556,0.254556,,lsc,,22,female,right,mouse,yes,2021-04-08_10h38.02.913,facelocalization,2020.1.2,MacIntel,60,0.282456055,0.228818359,1,0,0,0.7028,4,1,53,437,6,1,1
