mouse_2.x,mouse_2.y,mouse_2.leftButton,mouse_2.midButton,mouse_2.rightButton,mouse_2.time,mouse_gender_task.x,mouse_gender_task.y,mouse_gender_task.leftButton,mouse_gender_task.midButton,mouse_gender_task.rightButton,mouse_gender_task.time,mouse_gender_task.clicked_name,demo.thisRepN,demo.thisTrialN,demo.thisN,demo.thisIndex,demo.ran,coex,coey,imageFile,participant,Student ID number (this is for RPP purpose only),Age,Gender,Handedness,"In this experiment, you need to constantly adjust the position of your cursor. what tool are your using to complete this experiment (mouse, trackpad,etc)?",Do you have normal or correct to normal vision?,date,expName,psychopyVersion,OS,frameRate,mouse.x,mouse.y,mouse.leftButton,mouse.midButton,mouse.rightButton,mouse.time,imageNum,trials.thisRepN,trials.thisTrialN,trials.thisN,trials.thisIndex,trials.ran,cond
0.17358941,0.314249132,1,0,0,2.6849,0.152052951,-0.012821181,1,0,0,1.113735,M,0,0,0,3,1,0.137754,0.332586,13.bmp,zw,n/a,25,Female,Right,trackpad,Yes,2021-03-04_13h39.21.960,facelocalization,2020.1.2,MacIntel,60,,,,,,,,,,,,,
-0.34000434,0.137304687,1,0,0,1.74879,-0.176883681,-0.007282986,1,0,0,0.73406,F,0,1,1,7,1,-0.332586,0.137754,29.bmp,zw,n/a,25,Female,Right,trackpad,Yes,2021-03-04_13h39.21.960,facelocalization,2020.1.2,MacIntel,60,,,,,,,,,,,,,
0.285989583,0.216653646,1,0,0,1.13256,-0.151258681,-0.003151042,1,0,0,0.89952,F,0,2,2,4,1,0.285606,0.21915,17.bmp,zw,n/a,25,Female,Right,trackpad,Yes,2021-03-04_13h39.21.960,facelocalization,2020.1.2,MacIntel,60,,,,,,,,,,,,,
-0.301848958,0.236892361,1,0,0,1.23291,0.154288194,-0.010842014,1,0,0,0.865775,M,0,3,3,2,1,-0.285606,0.21915,9.bmp,zw,n/a,25,Female,Right,trackpad,Yes,2021-03-04_13h39.21.960,facelocalization,2020.1.2,MacIntel,60,,,,,,,,,,,,,
-0.233953993,-0.295659722,1,0,0,1.11719,0.147265625,-0.014092882,1,0,0,1.18377,M,0,4,4,1,1,-0.21915,-0.285606,5.bmp,zw,n/a,25,Female,Right,trackpad,Yes,2021-03-04_13h39.21.960,facelocalization,2020.1.2,MacIntel,60,,,,,,,,,,,,,
0.314822049,-0.252078993,1,0,0,1.09828,0.14765191,-0.011605903,1,0,0,0.76745,M,0,5,5,6,1,0.285606,-0.21915,25.bmp,zw,n/a,25,Female,Right,trackpad,Yes,2021-03-04_13h39.21.960,facelocalization,2020.1.2,MacIntel,60,,,,,,,,,,,,,
-0.080533854,0.311931424,1,0,0,1.549485,0.149891493,0.020073785,1,0,0,0.86606,M,0,6,6,5,1,-0.093168,0.347724,21.bmp,zw,n/a,25,Female,Right,trackpad,Yes,2021-03-04_13h39.21.960,facelocalization,2020.1.2,MacIntel,60,,,,,,,,,,,,,
0.249270833,-0.275399306,1,0,0,1.28356,-0.155507813,-0.011341146,1,0,0,0.88379,F,0,7,7,0,1,0.254556,-0.254556,1.bmp,zw,n/a,25,Female,Right,trackpad,Yes,2021-03-04_13h39.21.960,facelocalization,2020.1.2,MacIntel,60,,,,,,,,,,,,,
,,,,,,-0.121332465,-0.009696181,1,0,0,0.93163,F,,,,,,0.285606,-0.21915,,zw,n/a,25,Female,Right,trackpad,Yes,2021-03-04_13h39.21.960,facelocalization,2020.1.2,MacIntel,60,0.30844184,-0.224279514,1,0,0,1.634625,31,0,0,0,379,1,8
,,,,,,0.129796007,0.010091146,1,0,0,0.799655,M,,,,,,-0.093168,0.347724,,zw,n/a,25,Female,Right,trackpad,Yes,2021-03-04_13h39.21.960,facelocalization,2020.1.2,MacIntel,60,-0.077738715,0.337960069,1,0,0,1.33408,15,0,1,1,158,1,4
,,,,,,0.168454861,0.024509549,1,0,0,1.266435,M,,,,,,0.285606,0.21915,,zw,n/a,25,Female,Right,trackpad,Yes,2021-03-04_13h39.21.960,facelocalization,2020.1.2,MacIntel,60,0.301519097,0.210099826,1,0,0,1.399905,27,0,2,2,293,1,7
,,,,,,0.178519965,0.018980035,1,0,0,0.667895,M,,,,,,-0.04698,-0.356904,,zw,n/a,25,Female,Right,trackpad,Yes,2021-03-04_13h39.21.960,facelocalization,2020.1.2,MacIntel,60,-0.061796875,-0.343832465,1,0,0,1.681795,24,0,3,3,275,1,6
,,,,,,0.140208333,-0.00953559,1,0,0,0.798485,M,,,,,,-0.21915,-0.285606,,zw,n/a,25,Female,Right,trackpad,Yes,2021-03-04_13h39.21.960,facelocalization,2020.1.2,MacIntel,60,-0.204648438,-0.309700521,1,0,0,1.11825,23,0,4,4,271,1,6
,,,,,,0.136944444,0.016419271,1,0,0,0.748855,M,,,,,,-0.137754,0.332586,,zw,n/a,25,Female,Right,trackpad,Yes,2021-03-04_13h39.21.960,facelocalization,2020.1.2,MacIntel,60,-0.145859375,0.299392361,1,0,0,1.26786,13,0,5,5,159,1,4
,,,,,,0.130768229,-0.008650174,1,0,0,0.782635,M,,,,,,-0.347724,0.093168,,zw,n/a,25,Female,Right,trackpad,Yes,2021-03-04_13h39.21.960,facelocalization,2020.1.2,MacIntel,60,-0.330555556,0.108198785,1,0,0,1.33186,21,0,6,6,262,1,6
,,,,,,-0.151532118,0.009761285,1,0,0,2.38115,F,,,,,,0.04698,-0.356904,,zw,n/a,25,Female,Right,trackpad,Yes,2021-03-04_13h39.21.960,facelocalization,2020.1.2,MacIntel,60,0.005503472,-0.370177951,1,0,0,1.367755,32,0,7,7,373,1,8
,,,,,,0.152565104,-0.009227431,1,0,0,0.7145,M,,,,,,-0.36,0,,zw,n/a,25,Female,Right,trackpad,Yes,2021-03-04_13h39.21.960,facelocalization,2020.1.2,MacIntel,60,-0.370820313,-0.013355035,1,0,0,1.33531,19,0,8,8,216,1,5
,,,,,,0.164722222,-0.018953993,1,0,0,0.64972,M,,,,,,-0.254556,0.254556,,zw,n/a,25,Female,Right,trackpad,Yes,2021-03-04_13h39.21.960,facelocalization,2020.1.2,MacIntel,60,-0.260373264,0.245681424,1,0,0,1.299065,7,0,9,9,66,1,2
,,,,,,0.137803819,0.011310764,1,0,0,0.87154,M,,,,,,0.04698,0.356904,,zw,n/a,25,Female,Right,trackpad,Yes,2021-03-04_13h39.21.960,facelocalization,2020.1.2,MacIntel,60,0.02702691,0.369205729,1,0,0,1.167495,31,0,10,10,347,1,8
,,,,,,0.167144097,0.004769965,1,0,0,1.08327,M,,,,,,0.356904,-0.04698,,zw,n/a,25,Female,Right,trackpad,Yes,2021-03-04_13h39.21.960,facelocalization,2020.1.2,MacIntel,60,0.336692708,-0.052582465,1,0,0,1.43281,7,0,11,11,95,1,2
,,,,,,-0.144730903,-0.029648437,1,0,0,0.68273,F,,,,,,0.137754,-0.332586,,zw,n/a,25,Female,Right,trackpad,Yes,2021-03-04_13h39.21.960,facelocalization,2020.1.2,MacIntel,60,0.132586806,-0.334934896,1,0,0,1.433135,18,0,12,12,231,1,5
,,,,,,-0.166102431,0.008428819,1,0,0,0.64962,F,,,,,,0.347724,0.093168,,zw,n/a,25,Female,Right,trackpad,Yes,2021-03-04_13h39.21.960,facelocalization,2020.1.2,MacIntel,60,0.336462674,0.0915625,1,0,0,1.56483,30,0,13,13,338,1,8
,,,,,,0.129852431,-0.015494792,1,0,0,0.782645,M,,,,,,-0.137754,-0.332586,,zw,n/a,25,Female,Right,trackpad,Yes,2021-03-04_13h39.21.960,facelocalization,2020.1.2,MacIntel,60,-0.141866319,-0.36858941,1,0,0,1.283395,27,0,14,14,321,1,7
,,,,,,0.158476563,-0.000872396,1,0,0,0.863105,M,,,,,,0.285606,0.21915,,zw,n/a,25,Female,Right,trackpad,Yes,2021-03-04_13h39.21.960,facelocalization,2020.1.2,MacIntel,60,0.315212674,0.167981771,1,0,0,1.45648,21,0,15,15,245,1,6
,,,,,,-0.141618924,0.014427083,1,0,0,0.832905,F,,,,,,-0.332586,-0.137754,,zw,n/a,25,Female,Right,trackpad,Yes,2021-03-04_13h39.21.960,facelocalization,2020.1.2,MacIntel,60,-0.32766059,-0.164891493,1,0,0,1.41801,8,0,16,16,75,1,2
,,,,,,0.171961806,0.016571181,1,0,0,1.08263,M,,,,,,-0.093168,-0.347724,,zw,n/a,25,Female,Right,trackpad,Yes,2021-03-04_13h39.21.960,facelocalization,2020.1.2,MacIntel,60,-0.113789062,-0.359344618,1,0,0,1.201725,6,0,17,17,82,1,2
,,,,,,-0.129127604,-0.019509549,1,0,0,0.730595,F,,,,,,0.285606,-0.21915,,zw,n/a,25,Female,Right,trackpad,Yes,2021-03-04_13h39.21.960,facelocalization,2020.1.2,MacIntel,60,0.301614583,-0.223828125,1,0,0,1.619725,26,0,18,18,331,1,7
,,,,,,0.154097222,0.000264757,1,0,0,0.81658,M,,,,,,-0.356904,0.04698,,zw,n/a,25,Female,Right,trackpad,Yes,2021-03-04_13h39.21.960,facelocalization,2020.1.2,MacIntel,60,-0.358411458,0.052482639,1,0,0,1.296625,9,0,19,19,119,1,3
,,,,,,0.143033854,0.021523437,1,0,0,1.94946,M,,,,,,-0.093168,-0.347724,,zw,n/a,25,Female,Right,trackpad,Yes,2021-03-04_13h39.21.960,facelocalization,2020.1.2,MacIntel,60,-0.134092882,-0.36702691,1,0,0,1.298335,32,0,20,20,370,1,8
,,,,,,0.161974826,0.010299479,1,0,0,0.65053,M,,,,,,0.21915,-0.285606,,zw,n/a,25,Female,Right,trackpad,Yes,2021-03-04_13h39.21.960,facelocalization,2020.1.2,MacIntel,60,0.228224826,-0.310381944,1,0,0,1.63277,3,0,21,21,41,1,1
,,,,,,0.156766493,-0.01922309,1,0,0,3.11664,M,,,,,,0.254556,0.254556,,zw,n/a,25,Female,Right,trackpad,Yes,2021-03-04_13h39.21.960,facelocalization,2020.1.2,MacIntel,60,0.257981771,0.280638021,1,0,0,1.29916,31,0,22,22,342,1,8
,,,,,,-0.130664063,-0.009830729,1,0,0,0.73412,F,,,,,,0.347724,-0.093168,,zw,n/a,25,Female,Right,trackpad,Yes,2021-03-04_13h39.21.960,facelocalization,2020.1.2,MacIntel,60,0.360993924,-0.101302083,1,0,0,1.181455,18,0,23,23,238,1,5
,,,,,,-0.12797309,-0.008493924,1,0,0,0.716155,F,,,,,,0.31176,-0.18,,zw,n/a,25,Female,Right,trackpad,Yes,2021-03-04_13h39.21.960,facelocalization,2020.1.2,MacIntel,60,0.314275174,-0.180533854,1,0,0,1.53304,32,0,24,24,380,1,8
,,,,,,-0.122990451,-0.011757812,1,0,0,0.715155,F,,,,,,0.285606,-0.21915,,zw,n/a,25,Female,Right,trackpad,Yes,2021-03-04_13h39.21.960,facelocalization,2020.1.2,MacIntel,60,0.279088542,-0.213719618,1,0,0,1.38292,1,0,25,25,43,1,1
,,,,,,0.133958333,-0.004943576,1,0,0,0.650105,M,,,,,,-0.36,0,,zw,n/a,25,Female,Right,trackpad,Yes,2021-03-04_13h39.21.960,facelocalization,2020.1.2,MacIntel,60,-0.363793403,0.007951389,1,0,0,1.516795,22,0,26,26,264,1,6
,,,,,,0.15,0.014782986,1,0,0,0.71157,M,,,,,,-0.31176,0.18,,zw,n/a,25,Female,Right,trackpad,Yes,2021-03-04_13h39.21.960,facelocalization,2020.1.2,MacIntel,60,-0.338806424,0.183667535,1,0,0,1.32036,18,0,27,27,212,1,5
,,,,,,-0.13327691,-0.01530816,1,0,0,0.68921,F,,,,,,0.356904,0.04698,,zw,n/a,25,Female,Right,trackpad,Yes,2021-03-04_13h39.21.960,facelocalization,2020.1.2,MacIntel,60,0.394618056,0.036549479,1,0,0,1.050545,2,0,28,28,1,1,1
,,,,,,-0.130347222,0.016588542,1,0,0,0.66562,F,,,,,,0.137754,0.332586,,zw,n/a,25,Female,Right,trackpad,Yes,2021-03-04_13h39.21.960,facelocalization,2020.1.2,MacIntel,60,0.16671441,0.291302083,1,0,0,1.5,2,0,29,29,9,1,1
,,,,,,-0.156271701,0.012842882,1,0,0,0.733725,F,,,,,,-0.31176,0.18,,zw,n/a,25,Female,Right,trackpad,Yes,2021-03-04_13h39.21.960,facelocalization,2020.1.2,MacIntel,60,-0.314696181,0.176319444,1,0,0,1.433215,14,0,30,30,164,1,4
,,,,,,0.143337674,0.017699653,1,0,0,0.93374,M,,,,,,-0.254556,0.254556,,zw,n/a,25,Female,Right,trackpad,Yes,2021-03-04_13h39.21.960,facelocalization,2020.1.2,MacIntel,60,-0.288072917,0.281527778,1,0,0,1.1174,27,0,31,31,306,1,7
,,,,,,0.178033854,-0.021618924,1,0,0,0.69893,M,,,,,,0.21915,-0.285606,,zw,n/a,25,Female,Right,trackpad,Yes,2021-03-04_13h39.21.960,facelocalization,2020.1.2,MacIntel,60,0.226501736,-0.289835069,1,0,0,1.516705,5,0,32,32,89,1,2
,,,,,,0.177278646,0.000451389,1,0,0,0.817305,M,,,,,,-0.31176,-0.18,,zw,n/a,25,Female,Right,trackpad,Yes,2021-03-04_13h39.21.960,facelocalization,2020.1.2,MacIntel,60,-0.323324653,-0.227582465,1,0,0,1.033615,27,0,33,33,316,1,7
,,,,,,0.133619792,-0.007630208,1,0,0,0.69797,M,,,,,,0.254556,0.254556,,zw,n/a,25,Female,Right,trackpad,Yes,2021-03-04_13h39.21.960,facelocalization,2020.1.2,MacIntel,60,0.280121528,0.252673611,1,0,0,1.485605,9,0,34,34,102,1,3
,,,,,,-0.150655382,-0.009500868,1,0,0,0.76485,F,,,,,,-0.347724,0.093168,,zw,n/a,25,Female,Right,trackpad,Yes,2021-03-04_13h39.21.960,facelocalization,2020.1.2,MacIntel,60,-0.334835069,0.110815972,1,0,0,1.516675,11,0,35,35,118,1,3
,,,,,,0.117938368,0.019817708,1,0,0,0.718545,M,,,,,,0,0.36,,zw,n/a,25,Female,Right,trackpad,Yes,2021-03-04_13h39.21.960,facelocalization,2020.1.2,MacIntel,60,0.01343316,0.348454861,1,0,0,1.280615,22,0,36,36,252,1,6
,,,,,,-0.147491319,-0.018068576,1,0,0,0.760045,F,,,,,,-0.254556,-0.254556,,zw,n/a,25,Female,Right,trackpad,Yes,2021-03-04_13h39.21.960,facelocalization,2020.1.2,MacIntel,60,-0.328307292,-0.277092014,1,0,0,1.405545,26,0,37,37,318,1,7
,,,,,,0.138003472,0.004865451,1,0,0,0.63265,M,,,,,,0.36,0,,zw,n/a,25,Female,Right,trackpad,Yes,2021-03-04_13h39.21.960,facelocalization,2020.1.2,MacIntel,60,0.380915799,-0.035750868,1,0,0,1.33373,13,0,38,38,144,1,4
,,,,,,0.150399306,-0.006675347,1,0,0,0.683465,M,,,,,,-0.285606,-0.21915,,zw,n/a,25,Female,Right,trackpad,Yes,2021-03-04_13h39.21.960,facelocalization,2020.1.2,MacIntel,60,-0.288372396,-0.241440972,1,0,0,1.281645,24,0,39,39,269,1,6
,,,,,,-0.15828559,-0.006922743,1,0,0,0.783275,F,,,,,,0.093168,0.347724,,zw,n/a,25,Female,Right,trackpad,Yes,2021-03-04_13h39.21.960,facelocalization,2020.1.2,MacIntel,60,0.06374566,0.355112847,1,0,0,1.51494,27,0,40,40,298,1,7
,,,,,,-0.126375868,0.009388021,1,0,0,0.697075,F,,,,,,0.04698,0.356904,,zw,n/a,25,Female,Right,trackpad,Yes,2021-03-04_13h39.21.960,facelocalization,2020.1.2,MacIntel,60,0.016193576,0.332391493,1,0,0,1.767625,1,0,41,41,11,1,1
,,,,,,0.18702691,-0.004505208,1,0,0,0.63332,M,,,,,,0.332586,-0.137754,,zw,n/a,25,Female,Right,trackpad,Yes,2021-03-04_13h39.21.960,facelocalization,2020.1.2,MacIntel,60,0.328940972,-0.130503472,1,0,0,1.41547,7,0,42,42,93,1,2
,,,,,,-0.136970486,-0.005360243,1,0,0,0.66304,F,,,,,,-0.356904,0.04698,,zw,n/a,25,Female,Right,trackpad,Yes,2021-03-04_13h39.21.960,facelocalization,2020.1.2,MacIntel,60,-0.331106771,0.042382812,1,0,0,2.785605,8,0,43,43,71,1,2
,,,,,,-0.165581597,-0.01,1,0,0,0.733405,F,,,,,,-0.356904,-0.04698,,zw,n/a,25,Female,Right,trackpad,Yes,2021-03-04_13h39.21.960,facelocalization,2020.1.2,MacIntel,60,-0.396653646,-0.065538194,1,0,0,1.63394,1,0,44,44,25,1,1
,,,,,,-0.142222222,-0.027222222,1,0,0,1.333075,F,,,,,,-0.254556,-0.254556,,zw,n/a,25,Female,Right,trackpad,Yes,2021-03-04_13h39.21.960,facelocalization,2020.1.2,MacIntel,60,-0.310850694,-0.263862847,1,0,0,1.58403,1,0,45,45,30,1,1
,,,,,,-0.157556424,0.014023437,1,0,0,1.433315,F,,,,,,-0.332586,0.137754,,zw,n/a,25,Female,Right,trackpad,Yes,2021-03-04_13h39.21.960,facelocalization,2020.1.2,MacIntel,60,-0.379210069,0.154118924,1,0,0,0.966295,27,0,46,46,309,1,7
,,,,,,-0.153059896,-0.016176215,1,0,0,0.699705,F,,,,,,-0.137754,-0.332586,,zw,n/a,25,Female,Right,trackpad,Yes,2021-03-04_13h39.21.960,facelocalization,2020.1.2,MacIntel,60,-0.174748264,-0.351831597,1,0,0,1.40052,21,0,47,47,273,1,6
,,,,,,0.14265191,0.000568576,1,0,0,0.79939,M,,,,,,-0.347724,-0.093168,,zw,n/a,25,Female,Right,trackpad,Yes,2021-03-04_13h39.21.960,facelocalization,2020.1.2,MacIntel,60,-0.390664063,-0.140117187,1,0,0,3.899765,26,0,48,48,314,1,7
,,,,,,0.16640191,-0.027795139,1,0,0,0.81666,M,,,,,,0.31176,-0.18,,zw,n/a,25,Female,Right,trackpad,Yes,2021-03-04_13h39.21.960,facelocalization,2020.1.2,MacIntel,60,0.365716146,-0.192078993,1,0,0,1.415455,21,0,49,49,284,1,6
,,,,,,-0.138758681,0.002230903,1,0,0,0.76755,F,,,,,,0.04698,0.356904,,zw,n/a,25,Female,Right,trackpad,Yes,2021-03-04_13h39.21.960,facelocalization,2020.1.2,MacIntel,60,0.059092882,0.318793403,1,0,0,1.4337,28,0,50,50,299,1,7
,,,,,,0.144249132,0.005928819,1,0,0,1.200965,M,,,,,,0.332586,0.137754,,zw,n/a,25,Female,Right,trackpad,Yes,2021-03-04_13h39.21.960,facelocalization,2020.1.2,MacIntel,60,0.363541667,0.144709201,1,0,0,1.33256,19,0,51,51,195,1,5
,,,,,,-0.145034722,-0.017144097,1,0,0,0.782275,F,,,,,,-0.285606,0.21915,,zw,n/a,25,Female,Right,trackpad,Yes,2021-03-04_13h39.21.960,facelocalization,2020.1.2,MacIntel,60,-0.252795139,0.235021701,1,0,0,4.000915,17,0,52,52,211,1,5
,,,,,,-0.157912326,0.009162326,1,0,0,0.983095,F,,,,,,-0.347724,-0.093168,,zw,n/a,25,Female,Right,trackpad,Yes,2021-03-04_13h39.21.960,facelocalization,2020.1.2,MacIntel,60,-0.361189236,-0.110299479,1,0,0,1.515815,24,0,53,53,266,1,6
,,,,,,0.179726562,1.73611E-05,1,0,0,3.38229,M,,,,,,0.137754,0.332586,,zw,n/a,25,Female,Right,trackpad,Yes,2021-03-04_13h39.21.960,facelocalization,2020.1.2,MacIntel,60,0.18780816,0.328559028,1,0,0,1.500805,16,0,54,54,153,1,4
,,,,,,-0.154913194,-0.010703125,1,0,0,0.71572,F,,,,,,-0.285606,0.21915,,zw,n/a,25,Female,Right,trackpad,Yes,2021-03-04_13h39.21.960,facelocalization,2020.1.2,MacIntel,60,-0.293337674,0.200993924,1,0,0,1.53352,23,0,55,55,259,1,6
,,,,,,0.164453125,0.009175347,1,0,0,3.08351,M,,,,,,0.347724,0.093168,,zw,n/a,25,Female,Right,trackpad,Yes,2021-03-04_13h39.21.960,facelocalization,2020.1.2,MacIntel,60,0.391432292,0.124661458,1,0,0,1.78298,25,0,56,56,290,1,7
,,,,,,0.146905382,-0.011315104,1,0,0,0.649245,M,,,,,,0.36,0,,zw,n/a,25,Female,Right,trackpad,Yes,2021-03-04_13h39.21.960,facelocalization,2020.1.2,MacIntel,60,0.374730903,0.004275174,1,0,0,1.41633,20,0,57,57,192,1,5
,,,,,,-0.160690104,-0.012916667,1,0,0,1.115285,F,,,,,,0.18,0.31176,,zw,n/a,25,Female,Right,trackpad,Yes,2021-03-04_13h39.21.960,facelocalization,2020.1.2,MacIntel,60,0.169952257,0.299171007,1,0,0,1.316315,17,0,58,58,200,1,5
,,,,,,-0.154414063,0.006944444,1,0,0,0.68307,F,,,,,,0.332586,-0.137754,,zw,n/a,25,Female,Right,trackpad,Yes,2021-03-04_13h39.21.960,facelocalization,2020.1.2,MacIntel,60,0.34452691,-0.149088542,1,0,0,1.31669,10,0,59,59,141,1,3
,,,,,,0.133138021,-0.005911458,1,0,0,0.89974,M,,,,,,-0.093168,-0.347724,,zw,n/a,25,Female,Right,trackpad,Yes,2021-03-04_13h39.21.960,facelocalization,2020.1.2,MacIntel,60,-0.088736979,-0.358207465,1,0,0,1.517445,12,0,60,60,130,1,3
,,,,,,-0.127434896,-0.001228299,1,0,0,0.73355,F,,,,,,0.254556,-0.254556,,zw,n/a,25,Female,Right,trackpad,Yes,2021-03-04_13h39.21.960,facelocalization,2020.1.2,MacIntel,60,0.278650174,-0.26125,1,0,0,1.315505,23,0,61,61,282,1,6
,,,,,,0.125707465,-0.013693576,1,0,0,0.73328,M,,,,,,-0.18,-0.31176,,zw,n/a,25,Female,Right,trackpad,Yes,2021-03-04_13h39.21.960,facelocalization,2020.1.2,MacIntel,60,-0.206527778,-0.329835069,1,0,0,1.48411,21,0,62,62,272,1,6
,,,,,,0.153098958,0.025763889,1,0,0,0.88335,M,,,,,,-0.137754,0.332586,,zw,n/a,25,Female,Right,trackpad,Yes,2021-03-04_13h39.21.960,facelocalization,2020.1.2,MacIntel,60,-0.128927951,0.277947049,1,0,0,1.700805,29,0,63,63,351,1,8
,,,,,,0.15297309,0.003845486,1,0,0,0.833555,M,,,,,,-0.137754,0.332586,,zw,n/a,25,Female,Right,trackpad,Yes,2021-03-04_13h39.21.960,facelocalization,2020.1.2,MacIntel,60,-0.137309028,0.282955729,1,0,0,1.56667,28,0,64,64,303,1,7
,,,,,,0.156575521,0.010855035,1,0,0,0.616295,M,,,,,,0.093168,-0.347724,,zw,n/a,25,Female,Right,trackpad,Yes,2021-03-04_13h39.21.960,facelocalization,2020.1.2,MacIntel,60,0.09453125,-0.325299479,1,0,0,1.29854,5,0,65,65,86,1,2
,,,,,,-0.135342882,0.010668403,1,0,0,1.598935,F,,,,,,0.285606,0.21915,,zw,n/a,25,Female,Right,trackpad,Yes,2021-03-04_13h39.21.960,facelocalization,2020.1.2,MacIntel,60,0.295885417,0.211571181,1,0,0,1.46659,18,0,66,66,197,1,5
,,,,,,0.126671007,-0.023428819,1,0,0,0.63361,M,,,,,,0.18,0.31176,,zw,n/a,25,Female,Right,trackpad,Yes,2021-03-04_13h39.21.960,facelocalization,2020.1.2,MacIntel,60,0.226788194,0.274418403,1,0,0,1.20041,5,0,67,67,56,1,2
,,,,,,-0.166167535,-0.028710937,1,0,0,0.810145,F,,,,,,-0.093168,-0.347724,,zw,n/a,25,Female,Right,trackpad,Yes,2021-03-04_13h39.21.960,facelocalization,2020.1.2,MacIntel,60,-0.087569444,-0.366067708,1,0,0,1.3897,26,0,68,68,322,1,7
,,,,,,0.140490451,0.006844618,1,0,0,0.83237,M,,,,,,-0.332586,-0.137754,,zw,n/a,25,Female,Right,trackpad,Yes,2021-03-04_13h39.21.960,facelocalization,2020.1.2,MacIntel,60,-0.369205729,-0.210221354,1,0,0,1.23404,13,0,69,69,171,1,4
,,,,,,-0.164496528,-0.008810764,1,0,0,0.700115,F,,,,,,0.356904,-0.04698,,zw,n/a,25,Female,Right,trackpad,Yes,2021-03-04_13h39.21.960,facelocalization,2020.1.2,MacIntel,60,0.380277778,-0.039457465,1,0,0,1.065805,4,0,70,70,47,1,1
,,,,,,0.13234375,0.015069444,1,0,0,0.788725,M,,,,,,-0.137754,0.332586,,zw,n/a,25,Female,Right,trackpad,Yes,2021-03-04_13h39.21.960,facelocalization,2020.1.2,MacIntel,60,-0.141757812,0.236979167,1,0,0,1.300025,21,0,71,71,255,1,6
,,,,,,-0.14375,-0.004422743,1,0,0,1.299435,F,,,,,,0.093168,0.347724,,zw,n/a,25,Female,Right,trackpad,Yes,2021-03-04_13h39.21.960,facelocalization,2020.1.2,MacIntel,60,0.064891493,0.329739583,1,0,0,1.735035,17,0,72,72,202,1,5
,,,,,,0.150967882,-0.002434896,1,0,0,1.650285,M,,,,,,-0.332586,0.137754,,zw,n/a,25,Female,Right,trackpad,Yes,2021-03-04_13h39.21.960,facelocalization,2020.1.2,MacIntel,60,-0.362452257,0.129071181,1,0,0,0.949025,18,0,73,73,213,1,5
,,,,,,-0.146710069,-0.027126736,1,0,0,0.74849,F,,,,,,0.04698,-0.356904,,zw,n/a,25,Female,Right,trackpad,Yes,2021-03-04_13h39.21.960,facelocalization,2020.1.2,MacIntel,60,0.043216146,-0.36875,1,0,0,1.03603,26,0,74,74,325,1,7
,,,,,,0.164292535,0.008611111,1,0,0,0.93371,M,,,,,,-0.31176,-0.18,,zw,n/a,25,Female,Right,trackpad,Yes,2021-03-04_13h39.21.960,facelocalization,2020.1.2,MacIntel,60,-0.335833333,-0.187764757,1,0,0,1.28408,22,0,75,75,268,1,6
,,,,,,0.171979167,-0.018246528,1,0,0,0.76549,M,,,,,,-0.18,0.31176,,zw,n/a,25,Female,Right,trackpad,Yes,2021-03-04_13h39.21.960,facelocalization,2020.1.2,MacIntel,60,-0.198493924,0.287925347,1,0,0,1.35029,18,0,76,76,208,1,5
,,,,,,0.162821181,0.000208333,1,0,0,0.64729,M,,,,,,0.347724,-0.093168,,zw,n/a,25,Female,Right,trackpad,Yes,2021-03-04_13h39.21.960,facelocalization,2020.1.2,MacIntel,60,0.351215278,-0.109444444,1,0,0,1.10356,13,0,77,77,190,1,4
,,,,,,0.16375434,0.023993056,1,0,0,0.91756,M,,,,,,0.137754,-0.332586,,zw,n/a,25,Female,Right,trackpad,Yes,2021-03-04_13h39.21.960,facelocalization,2020.1.2,MacIntel,60,0.135572917,-0.305143229,1,0,0,1.0826,3,0,78,78,39,1,1
,,,,,,0.146957465,-0.070134549,1,0,0,0.998475,M,,,,,,-0.04698,0.356904,,zw,n/a,25,Female,Right,trackpad,Yes,2021-03-04_13h39.21.960,facelocalization,2020.1.2,MacIntel,60,-0.065733507,0.337513021,1,0,0,1.401065,18,0,79,79,205,1,5
,,,,,,0.144492188,-0.001024306,1,0,0,0.816615,M,,,,,,-0.254556,0.254556,,zw,n/a,25,Female,Right,trackpad,Yes,2021-03-04_13h39.21.960,facelocalization,2020.1.2,MacIntel,60,-0.297469618,0.246992187,1,0,0,1.116175,32,0,80,80,354,1,8
,,,,,,-0.143324653,0.004804687,1,0,0,0.798945,F,,,,,,0.332586,0.137754,,zw,n/a,25,Female,Right,trackpad,Yes,2021-03-04_13h39.21.960,facelocalization,2020.1.2,MacIntel,60,0.382634549,0.108828125,1,0,0,1.18517,27,0,81,81,291,1,7
,,,,,,0.164184028,0.01125,1,0,0,0.65566,M,,,,,,0.18,0.31176,,zw,n/a,25,Female,Right,trackpad,Yes,2021-03-04_13h39.21.960,facelocalization,2020.1.2,MacIntel,60,0.246436632,0.29202691,1,0,0,1.399165,9,0,82,82,104,1,3
,,,,,,-0.134470486,0.00437066,1,0,0,2.565825,F,,,,,,0.04698,0.356904,,zw,n/a,25,Female,Right,trackpad,Yes,2021-03-04_13h39.21.960,facelocalization,2020.1.2,MacIntel,60,0.037795139,0.322261285,1,0,0,1.65036,14,0,83,83,155,1,4
,,,,,,-0.1596875,-0.025138889,1,0,0,0.665695,F,,,,,,-0.093168,0.347724,,zw,n/a,25,Female,Right,trackpad,Yes,2021-03-04_13h39.21.960,facelocalization,2020.1.2,MacIntel,60,-0.123294271,0.35266059,1,0,0,1.735745,20,0,84,84,206,1,5
,,,,,,0.135516493,-0.010920139,1,0,0,0.716815,M,,,,,,-0.21915,-0.285606,,zw,n/a,25,Female,Right,trackpad,Yes,2021-03-04_13h39.21.960,facelocalization,2020.1.2,MacIntel,60,-0.213172743,-0.278732639,1,0,0,1.28436,16,0,85,85,175,1,4
,,,,,,-0.150091146,0.003185764,1,0,0,0.699605,F,,,,,,0.21915,0.285606,,zw,n/a,25,Female,Right,trackpad,Yes,2021-03-04_13h39.21.960,facelocalization,2020.1.2,MacIntel,60,0.243194444,0.314262153,1,0,0,1.149555,29,0,86,86,343,1,8
,,,,,,0.16328125,-0.018780382,1,0,0,0.649925,M,,,,,,0.356904,0.04698,,zw,n/a,25,Female,Right,trackpad,Yes,2021-03-04_13h39.21.960,facelocalization,2020.1.2,MacIntel,60,0.335525174,0.063958333,1,0,0,1.316345,6,0,87,87,49,1,2
,,,,,,0.158858507,-0.001202257,1,0,0,0.870755,M,,,,,,0.04698,0.356904,,zw,n/a,25,Female,Right,trackpad,Yes,2021-03-04_13h39.21.960,facelocalization,2020.1.2,MacIntel,60,0.057526042,0.335008681,1,0,0,1.399675,5,0,88,88,59,1,2
,,,,,,-0.159778646,-0.015,1,0,0,1.18248,F,,,,,,-0.356904,0.04698,,zw,n/a,25,Female,Right,trackpad,Yes,2021-03-04_13h39.21.960,facelocalization,2020.1.2,MacIntel,60,-0.380859375,0.052921007,1,0,0,1.40048,18,0,89,89,215,1,5
,,,,,,0.165546875,-0.01125434,1,0,0,0.79899,M,,,,,,-0.332586,0.137754,,zw,n/a,25,Female,Right,trackpad,Yes,2021-03-04_13h39.21.960,facelocalization,2020.1.2,MacIntel,60,-0.361037326,0.101128472,1,0,0,2.817145,6,0,90,90,69,1,2
,,,,,,0.167144097,-0.001814236,1,0,0,0.71727,M,,,,,,0.04698,-0.356904,,zw,n/a,25,Female,Right,trackpad,Yes,2021-03-04_13h39.21.960,facelocalization,2020.1.2,MacIntel,60,0.051931424,-0.341458333,1,0,0,1.38259,5,0,91,91,85,1,2
,,,,,,-0.169427083,-0.023233507,1,0,0,0.7164,F,,,,,,-0.04698,-0.356904,,zw,n/a,25,Female,Right,trackpad,Yes,2021-03-04_13h39.21.960,facelocalization,2020.1.2,MacIntel,60,-0.072894965,-0.344110243,1,0,0,1.300175,26,0,92,92,323,1,7
,,,,,,-0.15249566,0.001141493,1,0,0,0.716495,F,,,,,,0.31176,0.18,,zw,n/a,25,Female,Right,trackpad,Yes,2021-03-04_13h39.21.960,facelocalization,2020.1.2,MacIntel,60,0.358602431,0.165429688,1,0,0,1.468245,31,0,93,93,340,1,8
,,,,,,0.144118924,0.007443576,1,0,0,0.615495,M,,,,,,0.356904,-0.04698,,zw,n/a,25,Female,Right,trackpad,Yes,2021-03-04_13h39.21.960,facelocalization,2020.1.2,MacIntel,60,0.354288194,-0.047018229,1,0,0,1.233165,11,0,94,94,143,1,3
,,,,,,-0.149131944,-0.009244792,1,0,0,0.982685,F,,,,,,0.254556,0.254556,,zw,n/a,25,Female,Right,trackpad,Yes,2021-03-04_13h39.21.960,facelocalization,2020.1.2,MacIntel,60,0.306979167,0.221584201,1,0,0,1.3004,26,0,95,95,294,1,7
,,,,,,0.162278646,0.012612847,1,0,0,0.89897,M,,,,,,0.18,0.31176,,zw,n/a,25,Female,Right,trackpad,Yes,2021-03-04_13h39.21.960,facelocalization,2020.1.2,MacIntel,60,0.262209201,0.317569444,1,0,0,2.28359,27,0,96,96,296,1,7
,,,,,,-0.155073785,-0.020759549,1,0,0,0.7995,F,,,,,,0.356904,0.04698,,zw,n/a,25,Female,Right,trackpad,Yes,2021-03-04_13h39.21.960,facelocalization,2020.1.2,MacIntel,60,0.36327691,0.037057292,1,0,0,1.08307,26,0,97,97,289,1,7
,,,,,,-0.158146701,0.011206597,1,0,0,0.649705,F,,,,,,0.332586,0.137754,,zw,n/a,25,Female,Right,trackpad,Yes,2021-03-04_13h39.21.960,facelocalization,2020.1.2,MacIntel,60,0.357942708,0.13672309,1,0,0,1.273955,4,0,98,98,3,1,1
,,,,,,0.132790799,0.039045139,1,0,0,0.8832,M,,,,,,0,0.36,,zw,n/a,25,Female,Right,trackpad,Yes,2021-03-04_13h39.21.960,facelocalization,2020.1.2,MacIntel,60,0.015256076,0.323203125,1,0,0,1.432895,31,0,99,99,348,1,8
,,,,,,0.150095486,0.001319444,1,0,0,1.550845,M,,,,,,0.04698,-0.356904,,zw,n/a,25,Female,Right,trackpad,Yes,2021-03-04_13h39.21.960,facelocalization,2020.1.2,MacIntel,60,0.018020833,-0.369778646,1,0,0,1.24996,18,0,100,100,229,1,5
,,,,,,-0.134704861,-0.003459201,1,0,0,0.68366,F,,,,,,-0.31176,0.18,,zw,n/a,25,Female,Right,trackpad,Yes,2021-03-04_13h39.21.960,facelocalization,2020.1.2,MacIntel,60,-0.319852431,0.185646701,1,0,0,1.716885,4,0,101,101,20,1,1
,,,,,,-0.143923611,0.006597222,1,0,0,0.800565,F,,,,,,0.21915,-0.285606,,zw,n/a,25,Female,Right,trackpad,Yes,2021-03-04_13h39.21.960,facelocalization,2020.1.2,MacIntel,60,0.249101563,-0.307821181,1,0,0,1.266725,26,0,102,102,329,1,7
,,,,,,-0.149335937,-0.004934896,1,0,0,0.58433,F,,,,,,-0.356904,0.04698,,zw,n/a,25,Female,Right,trackpad,Yes,2021-03-04_13h39.21.960,facelocalization,2020.1.2,MacIntel,60,-0.364973958,0.041171875,1,0,0,1.498745,1,0,103,103,23,1,1
,,,,,,-0.152708333,-0.015894097,1,0,0,0.61416,F,,,,,,0.332586,0.137754,,zw,n/a,25,Female,Right,trackpad,Yes,2021-03-04_13h39.21.960,facelocalization,2020.1.2,MacIntel,60,0.322578125,0.13625434,1,0,0,1.2675,29,0,104,104,339,1,8
,,,,,,-0.153784722,0.003841146,1,0,0,0.70072,F,,,,,,0.347724,-0.093168,,zw,n/a,25,Female,Right,trackpad,Yes,2021-03-04_13h39.21.960,facelocalization,2020.1.2,MacIntel,60,0.399361979,-0.093333333,1,0,0,1.216535,4,0,105,105,46,1,1
,,,,,,-0.158546007,-0.011115451,1,0,0,0.867205,F,,,,,,0.21915,0.285606,,zw,n/a,25,Female,Right,trackpad,Yes,2021-03-04_13h39.21.960,facelocalization,2020.1.2,MacIntel,60,0.286462674,0.308294271,1,0,0,1.43241,2,0,106,106,7,1,1
,,,,,,0.14593316,0.009427083,1,0,0,0.93367,M,,,,,,-0.31176,-0.18,,zw,n/a,25,Female,Right,trackpad,Yes,2021-03-04_13h39.21.960,facelocalization,2020.1.2,MacIntel,60,-0.347443576,-0.18844184,1,0,0,1.150035,6,0,107,107,76,1,2
,,,,,,-0.15453125,-0.003407118,1,0,0,0.682805,F,,,,,,-0.093168,0.347724,,zw,n/a,25,Female,Right,trackpad,Yes,2021-03-04_13h39.21.960,facelocalization,2020.1.2,MacIntel,60,-0.109262153,0.334149306,1,0,0,1.78345,23,0,108,108,254,1,6
,,,,,,-0.122426215,-0.014361979,1,0,0,0.63269,F,,,,,,-0.31176,-0.18,,zw,n/a,25,Female,Right,trackpad,Yes,2021-03-04_13h39.21.960,facelocalization,2020.1.2,MacIntel,60,-0.338919271,-0.201979167,1,0,0,1.449345,1,0,109,109,28,1,1
,,,,,,-0.165564236,0.002573785,1,0,0,0.666485,F,,,,,,-0.332586,0.137754,,zw,n/a,25,Female,Right,trackpad,Yes,2021-03-04_13h39.21.960,facelocalization,2020.1.2,MacIntel,60,-0.366263021,0.102534722,1,0,0,1.04871,1,0,110,110,21,1,1
,,,,,,-0.11655816,0.025256076,1,0,0,0.666865,F,,,,,,0.093168,0.347724,,zw,n/a,25,Female,Right,trackpad,Yes,2021-03-04_13h39.21.960,facelocalization,2020.1.2,MacIntel,60,0.102617187,0.336940104,1,0,0,1.150695,2,0,111,111,10,1,1
,,,,,,-0.137986111,0.012565104,1,0,0,0.63026,F,,,,,,0.347724,-0.093168,,zw,n/a,25,Female,Right,trackpad,Yes,2021-03-04_13h39.21.960,facelocalization,2020.1.2,MacIntel,60,0.379934896,-0.13516059,1,0,0,1.366315,10,0,112,112,142,1,3
,,,,,,-0.126770833,0.019240451,1,0,0,0.667105,F,,,,,,0.254556,-0.254556,,zw,n/a,25,Female,Right,trackpad,Yes,2021-03-04_13h39.21.960,facelocalization,2020.1.2,MacIntel,60,0.283151042,-0.251935764,1,0,0,1.23199,1,0,113,113,42,1,1
,,,,,,-0.161171875,-0.019813368,1,0,0,0.799445,F,,,,,,0.137754,-0.332586,,zw,n/a,25,Female,Right,trackpad,Yes,2021-03-04_13h39.21.960,facelocalization,2020.1.2,MacIntel,60,0.180230035,-0.356853299,1,0,0,1.25085,7,0,114,114,87,1,2
,,,,,,0.143472222,-0.019739583,1,0,0,0.70191,M,,,,,,-0.285606,0.21915,,zw,n/a,25,Female,Right,trackpad,Yes,2021-03-04_13h39.21.960,facelocalization,2020.1.2,MacIntel,60,-0.292929687,0.209375,1,0,0,1.115395,13,0,115,115,163,1,4
,,,,,,0.165655382,0.003554688,1,0,0,0.766335,M,,,,,,-0.137754,-0.332586,,zw,n/a,25,Female,Right,trackpad,Yes,2021-03-04_13h39.21.960,facelocalization,2020.1.2,MacIntel,60,-0.138945313,-0.344891493,1,0,0,1.066795,5,0,116,116,81,1,2
,,,,,,0.159978299,0.010963542,1,0,0,0.632015,M,,,,,,0.285606,0.21915,,zw,n/a,25,Female,Right,trackpad,Yes,2021-03-04_13h39.21.960,facelocalization,2020.1.2,MacIntel,60,0.341349826,0.238541667,1,0,0,1.034975,32,0,117,117,341,1,8
,,,,,,0.148320312,0.005594618,1,0,0,0.567425,M,,,,,,0.332586,-0.137754,,zw,n/a,25,Female,Right,trackpad,Yes,2021-03-04_13h39.21.960,facelocalization,2020.1.2,MacIntel,60,0.346219618,-0.161141493,1,0,0,1.182175,16,0,118,118,189,1,4
,,,,,,-0.159288194,-0.00452691,1,0,0,0.698915,F,,,,,,-0.21915,0.285606,,zw,n/a,25,Female,Right,trackpad,Yes,2021-03-04_13h39.21.960,facelocalization,2020.1.2,MacIntel,60,-0.241458333,0.250486111,1,0,0,1.01564,26,0,119,119,305,1,7
,,,,,,0.160750868,-0.025985243,1,0,0,0.66594,M,,,,,,-0.285606,0.21915,,zw,n/a,25,Female,Right,trackpad,Yes,2021-03-04_13h39.21.960,facelocalization,2020.1.2,MacIntel,60,-0.288164062,0.211983507,1,0,0,1.36572,12,0,120,120,115,1,3
,,,,,,0.137469618,-0.02421441,1,0,0,0.900195,M,,,,,,-0.347724,-0.093168,,zw,n/a,25,Female,Right,trackpad,Yes,2021-03-04_13h39.21.960,facelocalization,2020.1.2,MacIntel,60,-0.344813368,-0.125182292,1,0,0,1.46521,5,0,121,121,74,1,2
,,,,,,0.164045139,0.006059028,1,0,0,0.682425,M,,,,,,0.137754,0.332586,,zw,n/a,25,Female,Right,trackpad,Yes,2021-03-04_13h39.21.960,facelocalization,2020.1.2,MacIntel,60,0.124244792,0.302912326,1,0,0,1.233925,6,0,122,122,57,1,2
,,,,,,-0.140034722,0.010694444,1,0,0,0.749035,F,,,,,,0.21915,-0.285606,,zw,n/a,25,Female,Right,trackpad,Yes,2021-03-04_13h39.21.960,facelocalization,2020.1.2,MacIntel,60,0.271063368,-0.294570312,1,0,0,1.51714,23,0,123,123,281,1,6
,,,,,,-0.142834201,0.016111111,1,0,0,0.700095,F,,,,,,-0.137754,0.332586,,zw,n/a,25,Female,Right,trackpad,Yes,2021-03-04_13h39.21.960,facelocalization,2020.1.2,MacIntel,60,-0.139813368,0.292682292,1,0,0,1.24919,10,0,124,124,111,1,3
,,,,,,0.177252604,-0.025789931,1,0,0,0.58415,M,,,,,,0.21915,-0.285606,,zw,n/a,25,Female,Right,trackpad,Yes,2021-03-04_13h39.21.960,facelocalization,2020.1.2,MacIntel,60,0.266024306,-0.296801215,1,0,0,1.398775,16,0,125,125,185,1,4
,,,,,,-0.1696875,-0.019891493,1,0,0,1.61598,F,,,,,,-0.21915,0.285606,,zw,n/a,25,Female,Right,trackpad,Yes,2021-03-04_13h39.21.960,facelocalization,2020.1.2,MacIntel,60,-0.233563368,0.273528646,1,0,0,1.100595,11,0,126,126,113,1,3
,,,,,,0.169709201,-0.0234375,1,0,0,0.631955,M,,,,,,-0.332586,0.137754,,zw,n/a,25,Female,Right,trackpad,Yes,2021-03-04_13h39.21.960,facelocalization,2020.1.2,MacIntel,60,-0.310538194,0.128003472,1,0,0,1.032745,29,0,127,127,357,1,8
,,,,,,0.156228299,-0.029926215,1,0,0,0.66553,M,,,,,,-0.04698,-0.356904,,zw,n/a,25,Female,Right,trackpad,Yes,2021-03-04_13h39.21.960,facelocalization,2020.1.2,MacIntel,60,-0.068715278,-0.38281684,1,0,0,1.00107,32,0,128,128,371,1,8
,,,,,,-0.158155382,-0.000959201,1,0,0,0.583335,F,,,,,,-0.356904,0.04698,,zw,n/a,25,Female,Right,trackpad,Yes,2021-03-04_13h39.21.960,facelocalization,2020.1.2,MacIntel,60,-0.347426215,0.022821181,1,0,0,1.13222,14,0,129,129,167,1,4
,,,,,,0.160499132,0.012825521,1,0,0,0.68431,M,,,,,,0.347724,0.093168,,zw,n/a,25,Female,Right,trackpad,Yes,2021-03-04_13h39.21.960,facelocalization,2020.1.2,MacIntel,60,0.421388889,0.065360243,1,0,0,1.333045,15,0,130,130,146,1,4
,,,,,,0.16171441,0.006657986,1,0,0,0.716855,M,,,,,,-0.332586,-0.137754,,zw,n/a,25,Female,Right,trackpad,Yes,2021-03-04_13h39.21.960,facelocalization,2020.1.2,MacIntel,60,-0.332860243,-0.146918403,1,0,0,1.21664,27,0,131,131,315,1,7
,,,,,,0.173515625,0.00031684,1,0,0,0.632735,M,,,,,,0.254556,0.254556,,zw,n/a,25,Female,Right,trackpad,Yes,2021-03-04_13h39.21.960,facelocalization,2020.1.2,MacIntel,60,0.287899306,0.252899306,1,0,0,1.000465,22,0,132,132,246,1,6
,,,,,,-0.164587674,0.005889757,1,0,0,0.65027,F,,,,,,0.31176,-0.18,,zw,n/a,25,Female,Right,trackpad,Yes,2021-03-04_13h39.21.960,facelocalization,2020.1.2,MacIntel,60,0.310646701,-0.197404514,1,0,0,1.350425,10,0,133,133,140,1,3
,,,,,,0.150724826,0.002912326,1,0,0,1.249335,M,,,,,,-0.356904,0.04698,,zw,n/a,25,Female,Right,trackpad,Yes,2021-03-04_13h39.21.960,facelocalization,2020.1.2,MacIntel,60,-0.351523437,0.050742188,1,0,0,1.31691,24,0,134,134,263,1,6
,,,,,,0.139804687,-0.017634549,1,0,0,0.731625,M,,,,,,0.18,0.31176,,zw,n/a,25,Female,Right,trackpad,Yes,2021-03-04_13h39.21.960,facelocalization,2020.1.2,MacIntel,60,0.191844618,0.289926215,1,0,0,1.36614,23,0,135,135,248,1,6
,,,,,,-0.156236979,-0.026657986,1,0,0,0.617395,F,,,,,,-0.18,-0.31176,,zw,n/a,25,Female,Right,trackpad,Yes,2021-03-04_13h39.21.960,facelocalization,2020.1.2,MacIntel,60,-0.185755208,-0.34906684,1,0,0,1.24903,29,0,136,136,368,1,8
,,,,,,-0.121267361,0.005920139,1,0,0,0.950045,F,,,,,,0.347724,0.093168,,zw,n/a,25,Female,Right,trackpad,Yes,2021-03-04_13h39.21.960,facelocalization,2020.1.2,MacIntel,60,0.377365451,0.103559028,1,0,0,1.4345,10,0,137,137,98,1,3
,,,,,,-0.148003472,-0.02421875,1,0,0,0.767075,F,,,,,,-0.137754,0.332586,,zw,n/a,25,Female,Right,trackpad,Yes,2021-03-04_13h39.21.960,facelocalization,2020.1.2,MacIntel,60,-0.171788194,0.274305556,1,0,0,1.28297,4,0,138,138,15,1,1
,,,,,,0.142734375,-0.012925347,1,0,0,0.61611,M,,,,,,0.21915,0.285606,,zw,n/a,25,Female,Right,trackpad,Yes,2021-03-04_13h39.21.960,facelocalization,2020.1.2,MacIntel,60,0.241519097,0.271315104,1,0,0,1.06564,13,0,139,139,151,1,4
,,,,,,-0.149314236,-0.006666667,1,0,0,0.76707,F,,,,,,0.332586,-0.137754,,zw,n/a,25,Female,Right,trackpad,Yes,2021-03-04_13h39.21.960,facelocalization,2020.1.2,MacIntel,60,0.335533854,-0.15218316,1,0,0,1.115155,1,0,140,140,45,1,1
,,,,,,0.171432292,-0.004605035,1,0,0,2.217485,M,,,,,,-0.137754,0.332586,,zw,n/a,25,Female,Right,trackpad,Yes,2021-03-04_13h39.21.960,facelocalization,2020.1.2,MacIntel,60,-0.129943576,0.307751736,1,0,0,1.26471,8,0,141,141,63,1,2
,,,,,,-0.156154514,-0.031015625,1,0,0,0.732145,F,,,,,,0.093168,-0.347724,,zw,n/a,25,Female,Right,trackpad,Yes,2021-03-04_13h39.21.960,facelocalization,2020.1.2,MacIntel,60,0.088211806,-0.328398437,1,0,0,1.200195,10,0,142,142,134,1,3
,,,,,,0.17843316,0.025125868,1,0,0,0.66629,M,,,,,,-0.18,-0.31176,,zw,n/a,25,Female,Right,trackpad,Yes,2021-03-04_13h39.21.960,facelocalization,2020.1.2,MacIntel,60,-0.154756944,-0.331592882,1,0,0,1.183795,9,0,143,143,128,1,3
,,,,,,0.147677951,0.001922743,1,0,0,0.764975,M,,,,,,0,0.36,,zw,n/a,25,Female,Right,trackpad,Yes,2021-03-04_13h39.21.960,facelocalization,2020.1.2,MacIntel,60,0.004943576,0.350924479,1,0,0,1.350385,11,0,144,144,108,1,3
,,,,,,-0.156145833,0.005190972,1,0,0,0.666685,F,,,,,,0.332586,-0.137754,,zw,n/a,25,Female,Right,trackpad,Yes,2021-03-04_13h39.21.960,facelocalization,2020.1.2,MacIntel,60,0.351284722,-0.125542535,1,0,0,1.366305,29,0,145,145,381,1,8
,,,,,,0.16780816,0.000551215,1,0,0,0.65037,M,,,,,,0.093168,-0.347724,,zw,n/a,25,Female,Right,trackpad,Yes,2021-03-04_13h39.21.960,facelocalization,2020.1.2,MacIntel,60,0.094657118,-0.36874566,1,0,0,1.54867,15,0,146,146,182,1,4
,,,,,,0.149409722,0.002044271,1,0,0,0.7485,M,,,,,,-0.332586,0.137754,,zw,n/a,25,Female,Right,trackpad,Yes,2021-03-04_13h39.21.960,facelocalization,2020.1.2,MacIntel,60,-0.324592014,0.125820313,1,0,0,1.16978,22,0,147,147,261,1,6
,,,,,,0.162465278,-0.005108507,1,0,0,0.73381,M,,,,,,-0.332586,-0.137754,,zw,n/a,25,Female,Right,trackpad,Yes,2021-03-04_13h39.21.960,facelocalization,2020.1.2,MacIntel,60,-0.327118056,-0.176232639,1,0,0,1.04925,12,0,148,148,123,1,3
,,,,,,0.167552083,-0.000664063,1,0,0,0.698195,M,,,,,,-0.356904,-0.04698,,zw,n/a,25,Female,Right,trackpad,Yes,2021-03-04_13h39.21.960,facelocalization,2020.1.2,MacIntel,60,-0.345824653,-0.070069444,1,0,0,1.118875,16,0,149,149,169,1,4
,,,,,,0.158359375,0.009249132,1,0,0,1.04958,M,,,,,,0.137754,0.332586,,zw,n/a,25,Female,Right,trackpad,Yes,2021-03-04_13h39.21.960,facelocalization,2020.1.2,MacIntel,60,0.142560764,0.329544271,1,0,0,1.885425,24,0,150,150,249,1,6
,,,,,,-0.190195312,-0.002226562,1,0,0,0.684445,F,,,,,,0.356904,-0.04698,,zw,n/a,25,Female,Right,trackpad,Yes,2021-03-04_13h39.21.960,facelocalization,2020.1.2,MacIntel,60,0.363142361,-0.041875,1,0,0,1.698865,29,0,151,151,383,1,8
,,,,,,-0.144882813,0.000434028,1,0,0,0.88306,F,,,,,,-0.36,0,,zw,n/a,25,Female,Right,trackpad,Yes,2021-03-04_13h39.21.960,facelocalization,2020.1.2,MacIntel,60,-0.350850694,0.001137153,1,0,0,1.666185,30,0,152,152,360,1,8
,,,,,,0.133407118,0.003255208,1,0,0,1.966675,M,,,,,,-0.18,-0.31176,,zw,n/a,25,Female,Right,trackpad,Yes,2021-03-04_13h39.21.960,facelocalization,2020.1.2,MacIntel,60,-0.186835937,-0.292868924,1,0,0,1.76528,2,0,153,153,32,1,1
,,,,,,-0.132664931,-0.007790799,1,0,0,0.83275,F,,,,,,0.254556,-0.254556,,zw,n/a,25,Female,Right,trackpad,Yes,2021-03-04_13h39.21.960,facelocalization,2020.1.2,MacIntel,60,0.305946181,-0.282994792,1,0,0,1.15062,14,0,154,154,186,1,4
,,,,,,-0.160633681,-0.002951389,1,0,0,0.93262,F,,,,,,-0.21915,0.285606,,zw,n/a,25,Female,Right,trackpad,Yes,2021-03-04_13h39.21.960,facelocalization,2020.1.2,MacIntel,60,-0.217144097,0.257473958,1,0,0,1.116675,16,0,155,155,161,1,4
,,,,,,0.184822049,-0.020295139,1,0,0,0.882995,M,,,,,,0.093168,0.347724,,zw,n/a,25,Female,Right,trackpad,Yes,2021-03-04_13h39.21.960,facelocalization,2020.1.2,MacIntel,60,0.125802951,0.359118924,1,0,0,1.45097,24,0,156,156,250,1,6
,,,,,,0.162630208,-0.018224826,1,0,0,0.61589,M,,,,,,0.254556,-0.254556,,zw,n/a,25,Female,Right,trackpad,Yes,2021-03-04_13h39.21.960,facelocalization,2020.1.2,MacIntel,60,0.28780816,-0.260763889,1,0,0,1.268165,6,0,157,157,90,1,2
,,,,,,-0.133693576,-0.010052083,1,0,0,3.932715,F,,,,,,-0.332586,0.137754,,zw,n/a,25,Female,Right,trackpad,Yes,2021-03-04_13h39.21.960,facelocalization,2020.1.2,MacIntel,60,-0.325190972,0.147044271,1,0,0,1.534925,10,0,158,158,117,1,3
,,,,,,0.135967882,0.001132812,1,0,0,0.7486,M,,,,,,0,0.36,,zw,n/a,25,Female,Right,trackpad,Yes,2021-03-04_13h39.21.960,facelocalization,2020.1.2,MacIntel,60,0.001918403,0.349131944,1,0,0,1.33426,15,0,159,159,156,1,4
,,,,,,0.164231771,0.006618924,1,0,0,0.698515,M,,,,,,-0.04698,-0.356904,,zw,n/a,25,Female,Right,trackpad,Yes,2021-03-04_13h39.21.960,facelocalization,2020.1.2,MacIntel,60,-0.045772569,-0.369322917,1,0,0,1.317005,12,0,160,160,131,1,3
,,,,,,0.161184896,0.008459201,1,0,0,0.60077,M,,,,,,0.332586,-0.137754,,zw,n/a,25,Female,Right,trackpad,Yes,2021-03-04_13h39.21.960,facelocalization,2020.1.2,MacIntel,60,0.363107639,-0.151618924,1,0,0,1.36441,22,0,161,161,285,1,6
,,,,,,0.142586806,0.012313368,1,0,0,0.900105,M,,,,,,-0.347724,0.093168,,zw,n/a,25,Female,Right,trackpad,Yes,2021-03-04_13h39.21.960,facelocalization,2020.1.2,MacIntel,60,-0.335902778,0.095399306,1,0,0,1.232215,16,0,162,162,166,1,4
,,,,,,0.170594618,-0.048858507,1,0,0,0.66543,M,,,,,,0.093168,-0.347724,,zw,n/a,25,Female,Right,trackpad,Yes,2021-03-04_13h39.21.960,facelocalization,2020.1.2,MacIntel,60,0.149162326,-0.358085938,1,0,0,1.250805,24,0,163,163,278,1,6
,,,,,,0.137200521,-0.008524306,1,0,0,0.66689,M,,,,,,-0.332586,-0.137754,,zw,n/a,25,Female,Right,trackpad,Yes,2021-03-04_13h39.21.960,facelocalization,2020.1.2,MacIntel,60,-0.307591146,-0.150837674,1,0,0,1.449765,22,0,164,164,267,1,6
,,,,,,-0.143250868,0.01968316,1,0,0,0.801075,F,,,,,,0.18,0.31176,,zw,n/a,25,Female,Right,trackpad,Yes,2021-03-04_13h39.21.960,facelocalization,2020.1.2,MacIntel,60,0.211961806,0.32530816,1,0,0,1.633385,29,0,165,165,344,1,8
,,,,,,0.164943576,-0.04578125,1,0,0,0.63208,M,,,,,,0.21915,-0.285606,,zw,n/a,25,Female,Right,trackpad,Yes,2021-03-04_13h39.21.960,facelocalization,2020.1.2,MacIntel,60,0.24016059,-0.313884549,1,0,0,1.50091,11,0,166,166,137,1,3
,,,,,,0.163815104,0.009952257,1,0,0,0.88102,M,,,,,,-0.137754,-0.332586,,zw,n/a,25,Female,Right,trackpad,Yes,2021-03-04_13h39.21.960,facelocalization,2020.1.2,MacIntel,60,-0.161944444,-0.336974826,1,0,0,1.33537,13,0,167,167,177,1,4
,,,,,,0.160447049,-0.001419271,1,0,0,0.717455,M,,,,,,0.347724,0.093168,,zw,n/a,25,Female,Right,trackpad,Yes,2021-03-04_13h39.21.960,facelocalization,2020.1.2,MacIntel,60,0.441449653,0.128723958,1,0,0,1.23163,8,0,168,168,50,1,2
,,,,,,0.120026042,0.018107639,1,0,0,2.08404,M,,,,,,-0.137754,-0.332586,,zw,n/a,25,Female,Right,trackpad,Yes,2021-03-04_13h39.21.960,facelocalization,2020.1.2,MacIntel,60,-0.123732639,-0.319600694,1,0,0,1.13192,12,0,169,169,129,1,3
,,,,,,0.161640625,0.014965278,1,0,0,0.581945,M,,,,,,0.285606,0.21915,,zw,n/a,25,Female,Right,trackpad,Yes,2021-03-04_13h39.21.960,facelocalization,2020.1.2,MacIntel,60,0.309600694,0.190616319,1,0,0,1.40128,8,0,170,170,53,1,2
,,,,,,-0.150538194,0.000868056,1,0,0,0.666215,F,,,,,,0.332586,0.137754,,zw,n/a,25,Female,Right,trackpad,Yes,2021-03-04_13h39.21.960,facelocalization,2020.1.2,MacIntel,60,0.376705729,0.139288194,1,0,0,1.617825,23,0,171,171,243,1,6
,,,,,,-0.141809896,-0.011132813,1,0,0,0.68229,F,,,,,,-0.285606,-0.21915,,zw,n/a,25,Female,Right,trackpad,Yes,2021-03-04_13h39.21.960,facelocalization,2020.1.2,MacIntel,60,-0.343480903,-0.259188368,1,0,0,1.43327,14,0,172,172,173,1,4
,,,,,,-0.153151042,0.002526042,1,0,0,0.59953,F,,,,,,-0.332586,0.137754,,zw,n/a,25,Female,Right,trackpad,Yes,2021-03-04_13h39.21.960,facelocalization,2020.1.2,MacIntel,60,-0.376050347,0.147790799,1,0,0,1.03377,13,0,173,173,165,1,4
,,,,,,0.170434028,0.020429688,1,0,0,0.59924,M,,,,,,0.137754,0.332586,,zw,n/a,25,Female,Right,trackpad,Yes,2021-03-04_13h39.21.960,facelocalization,2020.1.2,MacIntel,60,0.194978299,0.2978125,1,0,0,1.43442,19,0,174,174,201,1,5
,,,,,,0.172890625,0.008684896,1,0,0,0.633295,M,,,,,,0.254556,0.254556,,zw,n/a,25,Female,Right,trackpad,Yes,2021-03-04_13h39.21.960,facelocalization,2020.1.2,MacIntel,60,0.321523438,0.245364583,1,0,0,1.24865,7,0,175,175,54,1,2
,,,,,,0.177365451,0.023606771,1,0,0,0.59974,M,,,,,,0,-0.36,,zw,n/a,25,Female,Right,trackpad,Yes,2021-03-04_13h39.21.960,facelocalization,2020.1.2,MacIntel,60,0.011618924,-0.348780382,1,0,0,1.09915,13,0,176,176,180,1,4
,,,,,,0.157916667,0.012460937,1,0,0,0.83404,M,,,,,,-0.254556,-0.254556,,zw,n/a,25,Female,Right,trackpad,Yes,2021-03-04_13h39.21.960,facelocalization,2020.1.2,MacIntel,60,-0.274414063,-0.290863715,1,0,0,0.93174,9,0,177,177,126,1,3
,,,,,,0.135859375,-0.004891493,1,0,0,0.68236,M,,,,,,0,-0.36,,zw,n/a,25,Female,Right,trackpad,Yes,2021-03-04_13h39.21.960,facelocalization,2020.1.2,MacIntel,60,-0.00233941,-0.369440104,1,0,0,1.16614,3,0,178,178,36,1,1
,,,,,,0.166536458,-0.006124132,1,0,0,0.798045,M,,,,,,-0.21915,-0.285606,,zw,n/a,25,Female,Right,trackpad,Yes,2021-03-04_13h39.21.960,facelocalization,2020.1.2,MacIntel,60,-0.224340278,-0.326883681,1,0,0,1.43348,5,0,179,179,79,1,2
,,,,,,-0.145720486,0.006293403,1,0,0,0.70116,F,,,,,,0.04698,0.356904,,zw,n/a,25,Female,Right,trackpad,Yes,2021-03-04_13h39.21.960,facelocalization,2020.1.2,MacIntel,60,0.013580729,0.353580729,1,0,0,1.415245,17,0,180,180,203,1,5
,,,,,,-0.146145833,-0.012226562,1,0,0,0.733535,F,,,,,,0.093168,-0.347724,,zw,n/a,25,Female,Right,trackpad,Yes,2021-03-04_13h39.21.960,facelocalization,2020.1.2,MacIntel,60,0.107903646,-0.349813368,1,0,0,1.50028,31,0,181,181,374,1,8
,,,,,,0.182248264,-0.032178819,1,0,0,0.60042,M,,,,,,0.254556,-0.254556,,zw,n/a,25,Female,Right,trackpad,Yes,2021-03-04_13h39.21.960,facelocalization,2020.1.2,MacIntel,60,0.281367188,-0.27343316,1,0,0,1.48351,9,0,182,182,138,1,3
,,,,,,-0.13265191,0.02078559,1,0,0,1.518545,F,,,,,,0.137754,0.332586,,zw,n/a,25,Female,Right,trackpad,Yes,2021-03-04_13h39.21.960,facelocalization,2020.1.2,MacIntel,60,0.133776042,0.360130208,1,0,0,1.41618,12,0,183,183,105,1,3
,,,,,,-0.171831597,-0.014301215,1,0,0,1.0666,F,,,,,,0.137754,0.332586,,zw,n/a,25,Female,Right,trackpad,Yes,2021-03-04_13h39.21.960,facelocalization,2020.1.2,MacIntel,60,0.111154514,0.340347222,1,0,0,1.19862,30,0,184,184,345,1,8
,,,,,,-0.112756076,0.012070312,1,0,0,0.866225,F,,,,,,0.356904,0.04698,,zw,n/a,25,Female,Right,trackpad,Yes,2021-03-04_13h39.21.960,facelocalization,2020.1.2,MacIntel,60,0.45250434,-0.017725694,1,0,0,1.567385,10,0,185,185,97,1,3
,,,,,,0.170295139,0.001267361,1,0,0,2.23419,M,,,,,,-0.36,0,,zw,n/a,25,Female,Right,trackpad,Yes,2021-03-04_13h39.21.960,facelocalization,2020.1.2,MacIntel,60,-0.318246528,-0.008229167,1,0,0,1.48344,27,0,186,186,312,1,7
,,,,,,-0.175351563,-0.039765625,1,0,0,1.083245,F,,,,,,-0.285606,-0.21915,,zw,n/a,25,Female,Right,trackpad,Yes,2021-03-04_13h39.21.960,facelocalization,2020.1.2,MacIntel,60,-0.292469618,-0.219674479,1,0,0,1.28329,2,0,187,187,29,1,1
,,,,,,0.164019097,0.013450521,1,0,0,0.58524,M,,,,,,0.31176,-0.18,,zw,n/a,25,Female,Right,trackpad,Yes,2021-03-04_13h39.21.960,facelocalization,2020.1.2,MacIntel,60,0.344144965,-0.189743924,1,0,0,1.166445,17,0,188,188,236,1,5
,,,,,,-0.151367188,-0.015972222,1,0,0,0.615815,F,,,,,,0.093168,0.347724,,zw,n/a,25,Female,Right,trackpad,Yes,2021-03-04_13h39.21.960,facelocalization,2020.1.2,MacIntel,60,0.090902778,0.363697917,1,0,0,1.167065,31,0,189,189,346,1,8
,,,,,,0.194344618,-0.001671007,1,0,0,0.715865,M,,,,,,0.093168,-0.347724,,zw,n/a,25,Female,Right,trackpad,Yes,2021-03-04_13h39.21.960,facelocalization,2020.1.2,MacIntel,60,0.120342882,-0.385603299,1,0,0,1.19955,18,0,190,190,230,1,5
,,,,,,0.143229167,-0.003194444,1,0,0,4.93274,M,,,,,,0,-0.36,,zw,n/a,25,Female,Right,trackpad,Yes,2021-03-04_13h39.21.960,facelocalization,2020.1.2,MacIntel,60,0.024153646,-0.357513021,1,0,0,1.41536,25,0,191,191,324,1,7
,,,,,,-0.138980035,-0.027395833,1,0,0,0.9504,F,,,,,,0.093168,-0.347724,,zw,n/a,25,Female,Right,trackpad,Yes,2021-03-04_13h39.21.960,facelocalization,2020.1.2,MacIntel,60,0.129509549,-0.359826389,1,0,0,1.48181,28,0,192,192,326,1,7
,,,,,,0.135039063,-0.024809028,1,0,0,0.665345,M,,,,,,0.093168,0.347724,,zw,n/a,25,Female,Right,trackpad,Yes,2021-03-04_13h39.21.960,facelocalization,2020.1.2,MacIntel,60,0.128550347,0.346328125,1,0,0,1.166025,9,0,193,193,106,1,3
,,,,,,0.163463542,-0.011801215,1,0,0,0.59861,M,,,,,,0.36,0,,zw,n/a,25,Female,Right,trackpad,Yes,2021-03-04_13h39.21.960,facelocalization,2020.1.2,MacIntel,60,0.377534722,-0.022829861,1,0,0,1.0341,11,0,194,194,96,1,3
,,,,,,-0.145980903,-0.028489583,1,0,0,0.616575,F,,,,,,-0.254556,0.254556,,zw,n/a,25,Female,Right,trackpad,Yes,2021-03-04_13h39.21.960,facelocalization,2020.1.2,MacIntel,60,-0.30218316,0.25437934,1,0,0,1.24885,4,0,195,195,18,1,1
,,,,,,-0.15671875,0.006171875,1,0,0,0.6342,F,,,,,,-0.18,-0.31176,,zw,n/a,25,Female,Right,trackpad,Yes,2021-03-04_13h39.21.960,facelocalization,2020.1.2,MacIntel,60,-0.195386285,-0.321015625,1,0,0,1.11679,20,0,196,196,224,1,5
,,,,,,-0.131371528,-0.003090278,1,0,0,0.684415,F,,,,,,-0.347724,-0.093168,,zw,n/a,25,Female,Right,trackpad,Yes,2021-03-04_13h39.21.960,facelocalization,2020.1.2,MacIntel,60,-0.414917535,-0.120720486,1,0,0,0.982885,10,0,197,197,122,1,3
,,,,,,0.189466146,-0.004474826,1,0,0,1.23466,M,,,,,,-0.137754,-0.332586,,zw,n/a,25,Female,Right,trackpad,Yes,2021-03-04_13h39.21.960,facelocalization,2020.1.2,MacIntel,60,-0.156002604,-0.334053819,1,0,0,1.28132,3,0,198,198,33,1,1
,,,,,,-0.129982639,0.02625434,1,0,0,0.74899,F,,,,,,0.356904,0.04698,,zw,n/a,25,Female,Right,trackpad,Yes,2021-03-04_13h39.21.960,facelocalization,2020.1.2,MacIntel,60,0.387573785,0.052907986,1,0,0,0.917675,31,0,199,199,337,1,8
,,,,,,0.170585938,0.005711806,1,0,0,0.600525,M,,,,,,0.332586,0.137754,,zw,n/a,25,Female,Right,trackpad,Yes,2021-03-04_13h39.21.960,facelocalization,2020.1.2,MacIntel,60,0.386814236,0.142204861,1,0,0,1.56692,7,0,200,200,51,1,2
,,,,,,0.177391493,-0.013723958,1,0,0,0.61608,M,,,,,,0.347724,-0.093168,,zw,n/a,25,Female,Right,trackpad,Yes,2021-03-04_13h39.21.960,facelocalization,2020.1.2,MacIntel,60,0.407682292,-0.118763021,1,0,0,1.11401,5,0,201,201,94,1,2
,,,,,,-0.143606771,-0.017847222,1,0,0,0.883655,F,,,,,,-0.356904,-0.04698,,zw,n/a,25,Female,Right,trackpad,Yes,2021-03-04_13h39.21.960,facelocalization,2020.1.2,MacIntel,60,-0.382161458,-0.090972222,1,0,0,1.199265,30,0,202,202,361,1,8
,,,,,,-0.17421875,-0.011445313,1,0,0,0.733075,F,,,,,,0.137754,-0.332586,,zw,n/a,25,Female,Right,trackpad,Yes,2021-03-04_13h39.21.960,facelocalization,2020.1.2,MacIntel,60,0.144939236,-0.352065972,1,0,0,1.11789,26,0,203,203,327,1,7
,,,,,,0.169570312,0.008732639,1,0,0,2.218075,M,,,,,,0.21915,-0.285606,,zw,n/a,25,Female,Right,trackpad,Yes,2021-03-04_13h39.21.960,facelocalization,2020.1.2,MacIntel,60,0.233489583,-0.280950521,1,0,0,1.16463,32,0,204,204,377,1,8
,,,,,,0.186627604,-0.027521701,1,0,0,1.71606,M,,,,,,-0.04698,0.356904,,zw,n/a,25,Female,Right,trackpad,Yes,2021-03-04_13h39.21.960,facelocalization,2020.1.2,MacIntel,60,-0.064487847,0.352209201,1,0,0,1.518105,30,0,205,205,349,1,8
,,,,,,-0.146970486,-0.024809028,1,0,0,0.93314,F,,,,,,0,-0.36,,zw,n/a,25,Female,Right,trackpad,Yes,2021-03-04_13h39.21.960,facelocalization,2020.1.2,MacIntel,60,-0.015360243,-0.35687066,1,0,0,1.115975,30,0,206,206,372,1,8
,,,,,,-0.1553125,-0.017057292,1,0,0,0.767305,F,,,,,,-0.347724,-0.093168,,zw,n/a,25,Female,Right,trackpad,Yes,2021-03-04_13h39.21.960,facelocalization,2020.1.2,MacIntel,60,-0.41922309,-0.151367188,1,0,0,0.950405,20,0,207,207,218,1,5
,,,,,,-0.15171875,-0.020095486,1,0,0,0.734345,F,,,,,,-0.285606,-0.21915,,zw,n/a,25,Female,Right,trackpad,Yes,2021-03-04_13h39.21.960,facelocalization,2020.1.2,MacIntel,60,-0.354188368,-0.248832465,1,0,0,1.28183,31,0,208,208,365,1,8
,,,,,,0.189578993,-0.005768229,1,0,0,1.56659,M,,,,,,0.18,-0.31176,,zw,n/a,25,Female,Right,trackpad,Yes,2021-03-04_13h39.21.960,facelocalization,2020.1.2,MacIntel,60,0.179144965,-0.304292535,1,0,0,1.249785,14,0,209,209,184,1,4
,,,,,,-0.134049479,-0.001380208,1,0,0,0.699275,F,,,,,,-0.093168,0.347724,,zw,n/a,25,Female,Right,trackpad,Yes,2021-03-04_13h39.21.960,facelocalization,2020.1.2,MacIntel,60,-0.082860243,0.360303819,1,0,0,1.2153,4,0,210,210,14,1,1
,,,,,,0.144422743,0.004049479,1,0,0,1.033385,M,,,,,,-0.21915,-0.285606,,zw,n/a,25,Female,Right,trackpad,Yes,2021-03-04_13h39.21.960,facelocalization,2020.1.2,MacIntel,60,-0.216458333,-0.349236111,1,0,0,1.06632,25,0,211,211,319,1,7
,,,,,,-0.13703125,-0.021236979,1,0,0,0.783615,F,,,,,,0.347724,-0.093168,,zw,n/a,25,Female,Right,trackpad,Yes,2021-03-04_13h39.21.960,facelocalization,2020.1.2,MacIntel,60,0.399166667,-0.09891059,1,0,0,1.26592,24,0,212,212,286,1,6
,,,,,,-0.107092014,0.006519097,1,0,0,0.61549,F,,,,,,-0.332586,-0.137754,,zw,n/a,25,Female,Right,trackpad,Yes,2021-03-04_13h39.21.960,facelocalization,2020.1.2,MacIntel,60,-0.360512153,-0.1959375,1,0,0,1.267225,4,0,213,213,27,1,1
,,,,,,0.163342014,-0.018715278,1,0,0,0.599015,M,,,,,,0.18,-0.31176,,zw,n/a,25,Female,Right,trackpad,Yes,2021-03-04_13h39.21.960,facelocalization,2020.1.2,MacIntel,60,0.211223958,-0.317547743,1,0,0,1.282295,3,0,214,214,40,1,1
,,,,,,0.149696181,0.002447917,1,0,0,0.883425,M,,,,,,-0.285606,0.21915,,zw,n/a,25,Female,Right,trackpad,Yes,2021-03-04_13h39.21.960,facelocalization,2020.1.2,MacIntel,60,-0.293185764,0.176835938,1,0,0,1.13334,6,0,215,215,67,1,2
,,,,,,-0.156510417,-0.013485243,1,0,0,0.700025,F,,,,,,-0.347724,-0.093168,,zw,n/a,25,Female,Right,trackpad,Yes,2021-03-04_13h39.21.960,facelocalization,2020.1.2,MacIntel,60,-0.346514757,-0.118572049,1,0,0,0.99845,32,0,216,216,362,1,8
,,,,,,0.179713542,0.01625,1,0,0,0.783855,M,,,,,,0.137754,-0.332586,,zw,n/a,25,Female,Right,trackpad,Yes,2021-03-04_13h39.21.960,facelocalization,2020.1.2,MacIntel,60,0.152842882,-0.322552083,1,0,0,1.46665,12,0,217,217,135,1,3
,,,,,,0.155993924,0.024010417,1,0,0,0.684135,M,,,,,,0.347724,-0.093168,,zw,n/a,25,Female,Right,trackpad,Yes,2021-03-04_13h39.21.960,facelocalization,2020.1.2,MacIntel,60,0.352048611,-0.139331597,1,0,0,1.20037,32,0,218,218,382,1,8
,,,,,,0.164474826,-0.011215278,1,0,0,0.731735,M,,,,,,-0.31176,0.18,,zw,n/a,25,Female,Right,trackpad,Yes,2021-03-04_13h39.21.960,facelocalization,2020.1.2,MacIntel,60,-0.345282118,0.168402778,1,0,0,1.233055,7,0,219,219,68,1,2
,,,,,,0.152044271,0.01687934,1,0,0,0.699705,M,,,,,,-0.21915,0.285606,,zw,n/a,25,Female,Right,trackpad,Yes,2021-03-04_13h39.21.960,facelocalization,2020.1.2,MacIntel,60,-0.242000868,0.261749132,1,0,0,1.232605,5,0,220,220,65,1,2
,,,,,,0.157217882,-0.002135417,1,0,0,2.21723,M,,,,,,0.254556,-0.254556,,zw,n/a,25,Female,Right,trackpad,Yes,2021-03-04_13h39.21.960,facelocalization,2020.1.2,MacIntel,60,0.293684896,-0.268246528,1,0,0,1.334255,29,0,221,221,378,1,8
,,,,,,-0.162699653,-0.015099826,1,0,0,0.90081,F,,,,,,0.356904,-0.04698,,zw,n/a,25,Female,Right,trackpad,Yes,2021-03-04_13h39.21.960,facelocalization,2020.1.2,MacIntel,60,0.379422743,-0.052374132,1,0,0,1.45047,17,0,222,222,239,1,5
,,,,,,0.1603125,-0.002157118,1,0,0,0.70043,M,,,,,,-0.254556,-0.254556,,zw,n/a,25,Female,Right,trackpad,Yes,2021-03-04_13h39.21.960,facelocalization,2020.1.2,MacIntel,60,-0.237096354,-0.280368924,1,0,0,1.200175,23,0,223,223,270,1,6
,,,,,,0.176684028,-0.021210937,1,0,0,1.26753,M,,,,,,-0.254556,0.254556,,zw,n/a,25,Female,Right,trackpad,Yes,2021-03-04_13h39.21.960,facelocalization,2020.1.2,MacIntel,60,-0.25046875,0.214600694,1,0,0,1.44831,12,0,224,224,114,1,3
,,,,,,0.16062066,-0.009084201,1,0,0,0.66816,M,,,,,,-0.093168,0.347724,,zw,n/a,25,Female,Right,trackpad,Yes,2021-03-04_13h39.21.960,facelocalization,2020.1.2,MacIntel,60,-0.088784722,0.33108941,1,0,0,1.316075,7,0,225,225,62,1,2
,,,,,,0.138658854,0.000264757,1,0,0,0.586905,M,,,,,,0,0.36,,zw,n/a,25,Female,Right,trackpad,Yes,2021-03-04_13h39.21.960,facelocalization,2020.1.2,MacIntel,60,0.015954861,0.349709201,1,0,0,1.28262,6,0,226,226,60,1,2
,,,,,,0.168407118,-0.010646701,1,0,0,0.632055,M,,,,,,-0.18,0.31176,,zw,n/a,25,Female,Right,trackpad,Yes,2021-03-04_13h39.21.960,facelocalization,2020.1.2,MacIntel,60,-0.183680556,0.27734809,1,0,0,1.2178,25,0,227,227,304,1,7
,,,,,,0.154240451,-0.00078559,1,0,0,0.635055,M,,,,,,-0.18,-0.31176,,zw,n/a,25,Female,Right,trackpad,Yes,2021-03-04_13h39.21.960,facelocalization,2020.1.2,MacIntel,60,-0.169986979,-0.347747396,1,0,0,0.998095,25,0,228,228,320,1,7
,,,,,,-0.130946181,-0.033194444,1,0,0,1.016375,F,,,,,,-0.04698,-0.356904,,zw,n/a,25,Female,Right,trackpad,Yes,2021-03-04_13h39.21.960,facelocalization,2020.1.2,MacIntel,60,-0.052634549,-0.398967014,1,0,0,1.18284,15,0,229,229,179,1,4
,,,,,,0.160195312,0.000611979,1,0,0,0.565495,M,,,,,,0.36,0,,zw,n/a,25,Female,Right,trackpad,Yes,2021-03-04_13h39.21.960,facelocalization,2020.1.2,MacIntel,60,0.404960938,-0.024939236,1,0,0,1.266125,2,0,230,230,0,1,1
,,,,,,-0.172126736,-0.026085069,1,0,0,0.633445,F,,,,,,0.31176,0.18,,zw,n/a,25,Female,Right,trackpad,Yes,2021-03-04_13h39.21.960,facelocalization,2020.1.2,MacIntel,60,0.357126736,0.158485243,1,0,0,0.982815,12,0,231,231,100,1,3
,,,,,,0.182903646,0.012196181,1,0,0,0.59988,M,,,,,,0.04698,-0.356904,,zw,n/a,25,Female,Right,trackpad,Yes,2021-03-04_13h39.21.960,facelocalization,2020.1.2,MacIntel,60,0.077486979,-0.374453125,1,0,0,0.98427,21,0,232,232,277,1,6
,,,,,,-0.148172743,-0.005820312,1,0,0,0.600145,F,,,,,,-0.285606,0.21915,,zw,n/a,25,Female,Right,trackpad,Yes,2021-03-04_13h39.21.960,facelocalization,2020.1.2,MacIntel,60,-0.302491319,0.195177951,1,0,0,1.10102,3,0,233,233,19,1,1
,,,,,,-0.135043403,0.026219618,1,0,0,0.733305,F,,,,,,0.356904,-0.04698,,zw,n/a,25,Female,Right,trackpad,Yes,2021-03-04_13h39.21.960,facelocalization,2020.1.2,MacIntel,60,0.429040799,-0.066935764,1,0,0,1.332335,15,0,234,234,191,1,4
,,,,,,-0.174461806,-0.049136285,1,0,0,0.583665,F,,,,,,-0.21915,-0.285606,,zw,n/a,25,Female,Right,trackpad,Yes,2021-03-04_13h39.21.960,facelocalization,2020.1.2,MacIntel,60,-0.248728299,-0.339453125,1,0,0,1.233575,4,0,235,235,31,1,1
,,,,,,-0.125256076,0.00062934,1,0,0,0.71771,F,,,,,,0.254556,0.254556,,zw,n/a,25,Female,Right,trackpad,Yes,2021-03-04_13h39.21.960,facelocalization,2020.1.2,MacIntel,60,0.285082465,0.278802083,1,0,0,2.01629,4,0,236,236,6,1,1
,,,,,,-0.134357639,0.008059896,1,0,0,0.79858,F,,,,,,0.36,0,,zw,n/a,25,Female,Right,trackpad,Yes,2021-03-04_13h39.21.960,facelocalization,2020.1.2,MacIntel,60,0.434110243,-0.041597222,1,0,0,1.20002,23,0,237,237,240,1,6
,,,,,,0.136102431,0.007144097,1,0,0,0.666545,M,,,,,,0.31176,0.18,,zw,n/a,25,Female,Right,trackpad,Yes,2021-03-04_13h39.21.960,facelocalization,2020.1.2,MacIntel,60,0.333489583,0.154435764,1,0,0,1.017575,18,0,238,238,196,1,5
,,,,,,0.152686632,0.014027778,1,0,0,0.615965,M,,,,,,0.18,-0.31176,,zw,n/a,25,Female,Right,trackpad,Yes,2021-03-04_13h39.21.960,facelocalization,2020.1.2,MacIntel,60,0.219952257,-0.309895833,1,0,0,1.36805,18,0,239,239,232,1,5
,,,,,,-0.166788194,0.014960938,1,0,0,0.6503,F,,,,,,-0.347724,0.093168,,zw,n/a,25,Female,Right,trackpad,Yes,2021-03-04_13h39.21.960,facelocalization,2020.1.2,MacIntel,60,-0.356006944,0.058893229,1,0,0,1.38228,30,0,240,240,358,1,8
,,,,,,0.180173611,-0.000772569,1,0,0,0.63331,M,,,,,,0.31176,0.18,,zw,n/a,25,Female,Right,trackpad,Yes,2021-03-04_13h39.21.960,facelocalization,2020.1.2,MacIntel,60,0.355355903,0.144405382,1,0,0,1.31606,21,0,241,241,244,1,6
,,,,,,0.175325521,0.029869792,1,0,0,0.632785,M,,,,,,0.137754,-0.332586,,zw,n/a,25,Female,Right,trackpad,Yes,2021-03-04_13h39.21.960,facelocalization,2020.1.2,MacIntel,60,0.169570312,-0.34234375,1,0,0,1.28219,13,0,242,242,183,1,4
,,,,,,-0.159483507,-0.006132813,1,0,0,0.68246,F,,,,,,-0.356904,-0.04698,,zw,n/a,25,Female,Right,trackpad,Yes,2021-03-04_13h39.21.960,facelocalization,2020.1.2,MacIntel,60,-0.357773438,-0.07469184,1,0,0,1.30067,24,0,243,243,265,1,6
,,,,,,0.161315104,-0.017382813,1,0,0,0.73449,M,,,,,,-0.347724,-0.093168,,zw,n/a,25,Female,Right,trackpad,Yes,2021-03-04_13h39.21.960,facelocalization,2020.1.2,MacIntel,60,-0.397057292,-0.182161458,1,0,0,1.167025,15,0,244,244,170,1,4
,,,,,,0.162204861,0.002586806,1,0,0,0.69935,M,,,,,,-0.18,0.31176,,zw,n/a,25,Female,Right,trackpad,Yes,2021-03-04_13h39.21.960,facelocalization,2020.1.2,MacIntel,60,-0.172226563,0.285334201,1,0,0,1.50185,9,0,245,245,112,1,3
,,,,,,-0.139570312,0.002165799,1,0,0,0.68328,F,,,,,,-0.347724,0.093168,,zw,n/a,25,Female,Right,trackpad,Yes,2021-03-04_13h39.21.960,facelocalization,2020.1.2,MacIntel,60,-0.374787326,0.046341146,1,0,0,1.09861,1,0,246,246,22,1,1
,,,,,,-0.131705729,-0.00265191,1,0,0,0.83303,F,,,,,,0.285606,0.21915,,zw,n/a,25,Female,Right,trackpad,Yes,2021-03-04_13h39.21.960,facelocalization,2020.1.2,MacIntel,60,0.353836806,0.214561632,1,0,0,1.31619,13,0,247,247,149,1,4
,,,,,,0.185516493,0.025672743,1,0,0,0.63288,M,,,,,,0.332586,-0.137754,,zw,n/a,25,Female,Right,trackpad,Yes,2021-03-04_13h39.21.960,facelocalization,2020.1.2,MacIntel,60,0.432513021,-0.169782986,1,0,0,1.40086,28,0,248,248,333,1,7
,,,,,,0.175351563,0.02858941,1,0,0,0.609705,M,,,,,,0.36,0,,zw,n/a,25,Female,Right,trackpad,Yes,2021-03-04_13h39.21.960,facelocalization,2020.1.2,MacIntel,60,0.421801215,-0.023719618,1,0,0,1.36647,28,0,249,249,288,1,7
,,,,,,-0.155447049,0.00890625,1,0,0,0.668075,F,,,,,,0.137754,-0.332586,,zw,n/a,25,Female,Right,trackpad,Yes,2021-03-04_13h39.21.960,facelocalization,2020.1.2,MacIntel,60,0.148702257,-0.311397569,1,0,0,1.69868,31,0,250,250,375,1,8
,,,,,,0.164210069,0.015555556,1,0,0,0.86829,M,,,,,,-0.285606,-0.21915,,zw,n/a,25,Female,Right,trackpad,Yes,2021-03-04_13h39.21.960,facelocalization,2020.1.2,MacIntel,60,-0.292712674,-0.230707465,1,0,0,1.432965,8,0,251,251,77,1,2
,,,,,,0.183758681,-0.009422743,1,0,0,0.649495,M,,,,,,0,-0.36,,zw,n/a,25,Female,Right,trackpad,Yes,2021-03-04_13h39.21.960,facelocalization,2020.1.2,MacIntel,60,-0.003125,-0.341453993,1,0,0,1.23211,11,0,252,252,132,1,3
,,,,,,0.168780382,-0.007452257,1,0,0,0.649985,M,,,,,,-0.04698,-0.356904,,zw,n/a,25,Female,Right,trackpad,Yes,2021-03-04_13h39.21.960,facelocalization,2020.1.2,MacIntel,60,-0.053038194,-0.371276042,1,0,0,1.04953,5,0,253,253,83,1,2
,,,,,,-0.128888889,0.012326389,1,0,0,3.48177,F,,,,,,0.254556,0.254556,,zw,n/a,25,Female,Right,trackpad,Yes,2021-03-04_13h39.21.960,facelocalization,2020.1.2,MacIntel,60,0.238719618,0.267317708,1,0,0,1.40087,20,0,254,254,198,1,5
,,,,,,0.160364583,-0.002174479,1,0,0,0.58272,M,,,,,,0.356904,0.04698,,zw,n/a,25,Female,Right,trackpad,Yes,2021-03-04_13h39.21.960,facelocalization,2020.1.2,MacIntel,60,0.365273438,0.064761285,1,0,0,1.15049,16,0,255,255,145,1,4
,,,,,,0.166037326,-0.023376736,1,0,0,0.53236,M,,,,,,0.356904,-0.04698,,zw,n/a,25,Female,Right,trackpad,Yes,2021-03-04_13h39.21.960,facelocalization,2020.1.2,MacIntel,60,0.374700521,-0.028459201,1,0,0,1.75113,25,0,256,256,335,1,7
,,,,,,0.137456597,5.64236E-05,1,0,0,1.00096,M,,,,,,0,-0.36,,zw,n/a,25,Female,Right,trackpad,Yes,2021-03-04_13h39.21.960,facelocalization,2020.1.2,MacIntel,60,0.000412326,-0.348632813,1,0,0,1.349795,8,0,257,257,84,1,2
,,,,,,0.170555556,0.015143229,1,0,0,0.648105,M,,,,,,-0.21915,0.285606,,zw,n/a,25,Female,Right,trackpad,Yes,2021-03-04_13h39.21.960,facelocalization,2020.1.2,MacIntel,60,-0.221588542,0.277096354,1,0,0,1.16636,22,0,258,258,257,1,6
,,,,,,0.161267361,0.002361111,1,0,0,0.633215,M,,,,,,0.31176,-0.18,,zw,n/a,25,Female,Right,trackpad,Yes,2021-03-04_13h39.21.960,facelocalization,2020.1.2,MacIntel,60,0.374557292,-0.177235243,1,0,0,1.40036,3,0,259,259,44,1,1
,,,,,,0.153997396,0.067426215,1,0,0,0.74919,M,,,,,,-0.04698,-0.356904,,zw,n/a,25,Female,Right,trackpad,Yes,2021-03-04_13h39.21.960,facelocalization,2020.1.2,MacIntel,60,-0.051974826,-0.376805556,1,0,0,1.46722,20,0,260,260,227,1,5
,,,,,,-0.173016493,-0.051779514,1,0,0,0.649935,M,,,,,,0.18,0.31176,,zw,n/a,25,Female,Right,trackpad,Yes,2021-03-04_13h39.21.960,facelocalization,2020.1.2,MacIntel,60,0.178020833,0.296102431,1,0,0,1.33302,13,0,261,261,152,1,4
,,,,,,0.132209201,-0.012317708,1,0,0,0.816845,M,,,,,,-0.347724,0.093168,,zw,n/a,25,Female,Right,trackpad,Yes,2021-03-04_13h39.21.960,facelocalization,2020.1.2,MacIntel,60,-0.350651042,0.08077691,1,0,0,1.19987,6,0,262,262,70,1,2
,,,,,,-0.144782986,-0.028151042,1,0,0,0.63368,F,,,,,,-0.21915,-0.285606,,zw,n/a,25,Female,Right,trackpad,Yes,2021-03-04_13h39.21.960,facelocalization,2020.1.2,MacIntel,60,-0.243567708,-0.309644097,1,0,0,1.115785,19,0,263,263,223,1,5
,,,,,,0.182408854,0.003016493,1,0,0,0.55344,M,,,,,,0.31176,0.18,,zw,n/a,25,Female,Right,trackpad,Yes,2021-03-04_13h39.21.960,facelocalization,2020.1.2,MacIntel,60,0.349678819,0.150290799,1,0,0,1.497825,8,0,264,264,52,1,2
,,,,,,0.190225694,-0.031002604,1,0,0,0.584765,M,,,,,,0.347724,-0.093168,,zw,n/a,25,Female,Right,trackpad,Yes,2021-03-04_13h39.21.960,facelocalization,2020.1.2,MacIntel,60,0.452452257,-0.118411458,1,0,0,1.19868,28,0,265,265,334,1,7
,,,,,,-0.165230035,0.007317708,1,0,0,0.715935,F,,,,,,0.04698,0.356904,,zw,n/a,25,Female,Right,trackpad,Yes,2021-03-04_13h39.21.960,facelocalization,2020.1.2,MacIntel,60,0.049483507,0.372374132,1,0,0,1.717195,23,0,266,266,251,1,6
,,,,,,0.165911458,0.003311632,1,0,0,0.81571,M,,,,,,-0.093168,0.347724,,zw,n/a,25,Female,Right,trackpad,Yes,2021-03-04_13h39.21.960,facelocalization,2020.1.2,MacIntel,60,-0.070920139,0.357630208,1,0,0,1.598965,9,0,267,267,110,1,3
,,,,,,0.143919271,-0.007708333,1,0,0,0.800435,M,,,,,,-0.356904,-0.04698,,zw,n/a,25,Female,Right,trackpad,Yes,2021-03-04_13h39.21.960,facelocalization,2020.1.2,MacIntel,60,-0.353155382,-0.071362847,1,0,0,1.600305,25,0,268,268,313,1,7
,,,,,,-0.108138021,0.013776042,1,0,0,0.751335,F,,,,,,0.21915,0.285606,,zw,n/a,25,Female,Right,trackpad,Yes,2021-03-04_13h39.21.960,facelocalization,2020.1.2,MacIntel,60,0.277912326,0.346458333,1,0,0,1.366505,18,0,269,269,199,1,5
,,,,,,0.148298611,-0.017829861,1,0,0,0.7681,M,,,,,,-0.356904,0.04698,,zw,n/a,25,Female,Right,trackpad,Yes,2021-03-04_13h39.21.960,facelocalization,2020.1.2,MacIntel,60,-0.381536458,0.036111111,1,0,0,1.23155,25,0,270,270,311,1,7
,,,,,,-0.142638889,0.006210938,1,0,0,0.668835,F,,,,,,0.285606,0.21915,,zw,n/a,25,Female,Right,trackpad,Yes,2021-03-04_13h39.21.960,facelocalization,2020.1.2,MacIntel,60,0.280724826,0.175742188,1,0,0,1.41674,2,0,271,271,5,1,1
,,,,,,-0.14280816,0.005425347,1,0,0,0.683065,F,,,,,,-0.254556,0.254556,,zw,n/a,25,Female,Right,trackpad,Yes,2021-03-04_13h39.21.960,facelocalization,2020.1.2,MacIntel,60,-0.270052083,0.227074653,1,0,0,1.331915,20,0,272,272,210,1,5
,,,,,,0.143567708,0.022161458,1,0,0,0.7499,M,,,,,,-0.347724,0.093168,,zw,n/a,25,Female,Right,trackpad,Yes,2021-03-04_13h39.21.960,facelocalization,2020.1.2,MacIntel,60,-0.383090278,0.102404514,1,0,0,1.05,25,0,273,273,310,1,7
,,,,,,-0.178133681,-0.013198785,1,0,0,0.700315,F,,,,,,0.356904,0.04698,,zw,n/a,25,Female,Right,trackpad,Yes,2021-03-04_13h39.21.960,facelocalization,2020.1.2,MacIntel,60,0.399288194,0.033958333,1,0,0,1.132285,23,0,274,274,241,1,6
,,,,,,0.192690972,0.010590278,1,0,0,0.8491,M,,,,,,-0.285606,0.21915,,zw,n/a,25,Female,Right,trackpad,Yes,2021-03-04_13h39.21.960,facelocalization,2020.1.2,MacIntel,60,-0.339418403,0.228029514,1,0,0,1.18425,29,0,275,275,355,1,8
,,,,,,0.142096354,0.029800347,1,0,0,0.88492,M,,,,,,-0.18,0.31176,,zw,n/a,25,Female,Right,trackpad,Yes,2021-03-04_13h39.21.960,facelocalization,2020.1.2,MacIntel,60,-0.236137153,0.285117187,1,0,0,1.115275,15,0,276,276,160,1,4
,,,,,,0.153480903,0.032434896,1,0,0,0.614805,M,,,,,,0.31176,-0.18,,zw,n/a,25,Female,Right,trackpad,Yes,2021-03-04_13h39.21.960,facelocalization,2020.1.2,MacIntel,60,0.314739583,-0.215034722,1,0,0,1.318055,25,0,277,277,332,1,7
,,,,,,0.164301215,0.019427083,1,0,0,0.83336,M,,,,,,-0.18,-0.31176,,zw,n/a,25,Female,Right,trackpad,Yes,2021-03-04_13h39.21.960,facelocalization,2020.1.2,MacIntel,60,-0.233220486,-0.338780382,1,0,0,1.01491,15,0,278,278,176,1,4
,,,,,,-0.111649306,-0.003867187,1,0,0,1.500185,F,,,,,,-0.31176,0.18,,zw,n/a,25,Female,Right,trackpad,Yes,2021-03-04_13h39.21.960,facelocalization,2020.1.2,MacIntel,60,-0.326163194,0.137296007,1,0,0,1.449255,29,0,279,279,356,1,8
,,,,,,0.150646701,0.002951389,1,0,0,0.583475,M,,,,,,0.31176,-0.18,,zw,n/a,25,Female,Right,trackpad,Yes,2021-03-04_13h39.21.960,facelocalization,2020.1.2,MacIntel,60,0.36030816,-0.190260417,1,0,0,1.250005,7,0,280,280,92,1,2
,,,,,,0.170052083,-0.022421875,1,0,0,0.782275,M,,,,,,-0.093168,0.347724,,zw,n/a,25,Female,Right,trackpad,Yes,2021-03-04_13h39.21.960,facelocalization,2020.1.2,MacIntel,60,-0.072400174,0.298841146,1,0,0,1.16746,28,0,281,281,302,1,7
,,,,,,0.175720486,-0.036957465,1,0,0,0.651415,M,,,,,,0.285606,-0.21915,,zw,n/a,25,Female,Right,trackpad,Yes,2021-03-04_13h39.21.960,facelocalization,2020.1.2,MacIntel,60,0.315538194,-0.211536458,1,0,0,1.332435,17,0,282,282,235,1,5
,,,,,,0.165915799,-0.021640625,1,0,0,0.666745,M,,,,,,0.04698,-0.356904,,zw,n/a,25,Female,Right,trackpad,Yes,2021-03-04_13h39.21.960,facelocalization,2020.1.2,MacIntel,60,0.064518229,-0.34047309,1,0,0,1.417205,3,0,283,283,37,1,1
,,,,,,-0.131575521,-0.003025174,1,0,0,0.632705,F,,,,,,0.137754,0.332586,,zw,n/a,25,Female,Right,trackpad,Yes,2021-03-04_13h39.21.960,facelocalization,2020.1.2,MacIntel,60,0.123151042,0.339184028,1,0,0,1.14865,26,0,284,284,297,1,7
,,,,,,-0.129600694,0.010568576,1,0,0,0.700925,F,,,,,,-0.356904,-0.04698,,zw,n/a,25,Female,Right,trackpad,Yes,2021-03-04_13h39.21.960,facelocalization,2020.1.2,MacIntel,60,-0.362903646,-0.064644097,1,0,0,1.000845,20,0,285,285,217,1,5
,,,,,,-0.124743924,-0.008177083,1,0,0,0.75061,F,,,,,,0.18,-0.31176,,zw,n/a,25,Female,Right,trackpad,Yes,2021-03-04_13h39.21.960,facelocalization,2020.1.2,MacIntel,60,0.186232639,-0.330460069,1,0,0,1.39802,26,0,286,286,328,1,7
,,,,,,0.161440972,0.001184896,1,0,0,0.733585,M,,,,,,-0.36,0,,zw,n/a,25,Female,Right,trackpad,Yes,2021-03-04_13h39.21.960,facelocalization,2020.1.2,MacIntel,60,-0.374822049,-0.02984809,1,0,0,1.182315,15,0,287,287,168,1,4
,,,,,,0.13109809,0.006328125,1,0,0,0.950485,M,,,,,,-0.18,0.31176,,zw,n/a,25,Female,Right,trackpad,Yes,2021-03-04_13h39.21.960,facelocalization,2020.1.2,MacIntel,60,-0.222296007,0.297313368,1,0,0,1.612355,30,0,288,288,352,1,8
,,,,,,-0.129114583,0.012482639,1,0,0,0.748115,F,,,,,,0.18,-0.31176,,zw,n/a,25,Female,Right,trackpad,Yes,2021-03-04_13h39.21.960,facelocalization,2020.1.2,MacIntel,60,0.195347222,-0.29375434,1,0,0,1.31824,29,0,289,289,376,1,8
,,,,,,-0.140685764,-0.025733507,1,0,0,0.63303,F,,,,,,-0.254556,-0.254556,,zw,n/a,25,Female,Right,trackpad,Yes,2021-03-04_13h39.21.960,facelocalization,2020.1.2,MacIntel,60,-0.278546007,-0.287899306,1,0,0,1.4485,20,0,290,290,222,1,5
,,,,,,0.165798611,-0.015381944,1,0,0,0.665795,M,,,,,,0.137754,-0.332586,,zw,n/a,25,Female,Right,trackpad,Yes,2021-03-04_13h39.21.960,facelocalization,2020.1.2,MacIntel,60,0.143763021,-0.339006076,1,0,0,1.283515,22,0,291,291,279,1,6
,,,,,,-0.165394965,-0.030685764,1,0,0,0.600265,F,,,,,,-0.254556,-0.254556,,zw,n/a,25,Female,Right,trackpad,Yes,2021-03-04_13h39.21.960,facelocalization,2020.1.2,MacIntel,60,-0.310390625,-0.275546875,1,0,0,1.33245,15,0,292,292,174,1,4
,,,,,,0.16874566,0.000690104,1,0,0,0.649955,M,,,,,,-0.093168,-0.347724,,zw,n/a,25,Female,Right,trackpad,Yes,2021-03-04_13h39.21.960,facelocalization,2020.1.2,MacIntel,60,-0.101540799,-0.379414062,1,0,0,1.132385,21,0,293,293,274,1,6
,,,,,,0.170447049,-0.006636285,1,0,0,0.68224,M,,,,,,0,0.36,,zw,n/a,25,Female,Right,trackpad,Yes,2021-03-04_13h39.21.960,facelocalization,2020.1.2,MacIntel,60,-0.013689236,0.348728299,1,0,0,1.582735,27,0,294,294,300,1,7
,,,,,,-0.150325521,0.011076389,1,0,0,0.749795,F,,,,,,0.093168,-0.347724,,zw,n/a,25,Female,Right,trackpad,Yes,2021-03-04_13h39.21.960,facelocalization,2020.1.2,MacIntel,60,0.081614583,-0.372630208,1,0,0,1.265195,2,0,295,295,38,1,1
,,,,,,0.18905816,0.006818576,1,0,0,0.54909,M,,,,,,0.347724,0.093168,,zw,n/a,25,Female,Right,trackpad,Yes,2021-03-04_13h39.21.960,facelocalization,2020.1.2,MacIntel,60,0.369544271,0.107682292,1,0,0,1.234185,3,0,296,296,2,1,1
,,,,,,0.176414931,0.022161458,1,0,0,0.932485,M,,,,,,0.36,0,,zw,n/a,25,Female,Right,trackpad,Yes,2021-03-04_13h39.21.960,facelocalization,2020.1.2,MacIntel,60,0.432170139,0.011757812,1,0,0,1.03399,8,0,297,297,48,1,2
,,,,,,-0.150091146,-0.014344618,1,0,0,0.617085,F,,,,,,-0.285606,-0.21915,,zw,n/a,25,Female,Right,trackpad,Yes,2021-03-04_13h39.21.960,facelocalization,2020.1.2,MacIntel,60,-0.297942708,-0.264661458,1,0,0,1.11611,19,0,298,298,221,1,5
,,,,,,-0.124509549,-0.000598958,1,0,0,0.716015,F,,,,,,0.254556,0.254556,,zw,n/a,25,Female,Right,trackpad,Yes,2021-03-04_13h39.21.960,facelocalization,2020.1.2,MacIntel,60,0.299835069,0.266358507,1,0,0,1.384675,16,0,299,299,150,1,4
,,,,,,-0.145164931,-0.01625,1,0,0,0.55007,F,,,,,,-0.137754,-0.332586,,zw,n/a,25,Female,Right,trackpad,Yes,2021-03-04_13h39.21.960,facelocalization,2020.1.2,MacIntel,60,-0.160321181,-0.32734375,1,0,0,1.198865,29,0,300,300,369,1,8
,,,,,,0.150364583,-0.02608941,1,0,0,0.616465,M,,,,,,0,-0.36,,zw,n/a,25,Female,Right,trackpad,Yes,2021-03-04_13h39.21.960,facelocalization,2020.1.2,MacIntel,60,0.002747396,-0.370837674,1,0,0,1.13315,23,0,301,301,276,1,6
,,,,,,0.153702257,0.014874132,1,0,0,0.816825,M,,,,,,0.254556,-0.254556,,zw,n/a,25,Female,Right,trackpad,Yes,2021-03-04_13h39.21.960,facelocalization,2020.1.2,MacIntel,60,0.26327691,-0.285638021,1,0,0,1.016225,18,0,302,302,234,1,5
,,,,,,0.148541667,-0.005772569,1,0,0,0.7674,M,,,,,,-0.36,0,,zw,n/a,25,Female,Right,trackpad,Yes,2021-03-04_13h39.21.960,facelocalization,2020.1.2,MacIntel,60,-0.321019965,-0.000585937,1,0,0,1.115725,8,0,303,303,72,1,2
,,,,,,0.147521701,-0.018919271,1,0,0,0.52116,M,,,,,,0.347724,0.093168,,zw,n/a,25,Female,Right,trackpad,Yes,2021-03-04_13h39.21.960,facelocalization,2020.1.2,MacIntel,60,0.35062934,0.088111979,1,0,0,1.066465,22,0,304,304,242,1,6
,,,,,,0.165585938,-0.005915799,1,0,0,0.63278,M,,,,,,0.18,-0.31176,,zw,n/a,25,Female,Right,trackpad,Yes,2021-03-04_13h39.21.960,facelocalization,2020.1.2,MacIntel,60,0.209730903,-0.274123264,1,0,0,0.998615,5,0,305,305,88,1,2
,,,,,,-0.154509549,-0.003294271,1,0,0,1.04898,F,,,,,,0.18,-0.31176,,zw,n/a,25,Female,Right,trackpad,Yes,2021-03-04_13h39.21.960,facelocalization,2020.1.2,MacIntel,60,0.195277778,-0.324887153,1,0,0,1.21696,11,0,306,306,136,1,3
,,,,,,0.140590278,0.010568576,1,0,0,0.64873,M,,,,,,-0.04698,0.356904,,zw,n/a,25,Female,Right,trackpad,Yes,2021-03-04_13h39.21.960,facelocalization,2020.1.2,MacIntel,60,-0.046119792,0.35484809,1,0,0,1.24972,27,0,307,307,301,1,7
,,,,,,-0.122921007,0.004635417,1,0,0,0.567085,F,,,,,,-0.093168,-0.347724,,zw,n/a,25,Female,Right,trackpad,Yes,2021-03-04_13h39.21.960,facelocalization,2020.1.2,MacIntel,60,-0.093467882,-0.36156684,1,0,0,1.55079,20,0,308,308,226,1,5
,,,,,,0.132482639,-0.016484375,1,0,0,0.69947,M,,,,,,-0.093168,-0.347724,,zw,n/a,25,Female,Right,trackpad,Yes,2021-03-04_13h39.21.960,facelocalization,2020.1.2,MacIntel,60,-0.110195313,-0.360212674,1,0,0,1.10043,15,0,309,309,178,1,4
,,,,,,-0.155321181,-0.015603299,1,0,0,0.59908,F,,,,,,0.18,0.31176,,zw,n/a,25,Female,Right,trackpad,Yes,2021-03-04_13h39.21.960,facelocalization,2020.1.2,MacIntel,60,0.182256944,0.340894097,1,0,0,1.13359,4,0,310,310,8,1,1
,,,,,,0.1409375,0.005655382,1,0,0,0.749735,M,,,,,,-0.31176,0.18,,zw,n/a,25,Female,Right,trackpad,Yes,2021-03-04_13h39.21.960,facelocalization,2020.1.2,MacIntel,60,-0.321779514,0.192065972,1,0,0,0.93164,9,0,311,311,116,1,3
,,,,,,0.156263021,-0.031388889,1,0,0,0.684195,M,,,,,,-0.31176,0.18,,zw,n/a,25,Female,Right,trackpad,Yes,2021-03-04_13h39.21.960,facelocalization,2020.1.2,MacIntel,60,-0.303585069,0.184027778,1,0,0,1.14998,23,0,312,312,260,1,6
,,,,,,-0.116432292,-0.018485243,1,0,0,0.699905,F,,,,,,0.31176,0.18,,zw,n/a,25,Female,Right,trackpad,Yes,2021-03-04_13h39.21.960,facelocalization,2020.1.2,MacIntel,60,0.357235243,0.190894097,1,0,0,1.23135,2,0,313,313,4,1,1
,,,,,,0.1153125,-0.014375,1,0,0,0.716805,M,,,,,,0,0.36,,zw,n/a,25,Female,Right,trackpad,Yes,2021-03-04_13h39.21.960,facelocalization,2020.1.2,MacIntel,60,-0.010512153,0.352126736,1,0,0,1.51504,19,0,314,314,204,1,5
,,,,,,0.126809896,0.024726563,1,0,0,0.816015,M,,,,,,0.21915,0.285606,,zw,n/a,25,Female,Right,trackpad,Yes,2021-03-04_13h39.21.960,facelocalization,2020.1.2,MacIntel,60,0.269631076,0.296983507,1,0,0,1.499495,11,0,315,315,103,1,3
,,,,,,-0.137243924,0.006419271,1,0,0,0.584395,F,,,,,,-0.04698,0.356904,,zw,n/a,25,Female,Right,trackpad,Yes,2021-03-04_13h39.21.960,facelocalization,2020.1.2,MacIntel,60,-0.037682292,0.334939236,1,0,0,1.449955,4,0,316,316,13,1,1
,,,,,,0.135889757,-0.016753472,1,0,0,0.71607,M,,,,,,-0.254556,-0.254556,,zw,n/a,25,Female,Right,trackpad,Yes,2021-03-04_13h39.21.960,facelocalization,2020.1.2,MacIntel,60,-0.274904514,-0.250911458,1,0,0,1.20107,5,0,317,317,78,1,2
,,,,,,0.160972222,-0.009014757,1,0,0,0.94954,M,,,,,,-0.137754,-0.332586,,zw,n/a,25,Female,Right,trackpad,Yes,2021-03-04_13h39.21.960,facelocalization,2020.1.2,MacIntel,60,-0.166167535,-0.340772569,1,0,0,1.232045,19,0,318,318,225,1,5
,,,,,,-0.158962674,-0.023836806,1,0,0,0.582655,F,,,,,,-0.21915,-0.285606,,zw,n/a,25,Female,Right,trackpad,Yes,2021-03-04_13h39.21.960,facelocalization,2020.1.2,MacIntel,60,-0.262196181,-0.338337674,1,0,0,1.167275,32,0,319,319,367,1,8
,,,,,,0.148676215,0.002539063,1,0,0,0.78282,M,,,,,,-0.332586,-0.137754,,zw,n/a,25,Female,Right,trackpad,Yes,2021-03-04_13h39.21.960,facelocalization,2020.1.2,MacIntel,60,-0.383381076,-0.179544271,1,0,0,1.167035,18,0,320,320,219,1,5
,,,,,,-0.165486111,-0.001953125,1,0,0,0.750385,F,,,,,,0.04698,0.356904,,zw,n/a,25,Female,Right,trackpad,Yes,2021-03-04_13h39.21.960,facelocalization,2020.1.2,MacIntel,60,0.019227431,0.34937934,1,0,0,1.34978,10,0,321,321,107,1,3
,,,,,,-0.168936632,0.021662326,1,0,0,1.048945,F,,,,,,-0.18,0.31176,,zw,n/a,25,Female,Right,trackpad,Yes,2021-03-04_13h39.21.960,facelocalization,2020.1.2,MacIntel,60,-0.204253472,0.326319444,1,0,0,1.21867,2,0,322,322,16,1,1
,,,,,,0.124748264,-0.000533854,1,0,0,0.799805,M,,,,,,-0.137754,0.332586,,zw,n/a,25,Female,Right,trackpad,Yes,2021-03-04_13h39.21.960,facelocalization,2020.1.2,MacIntel,60,-0.18719184,0.337074653,1,0,0,1.149755,19,0,323,323,207,1,5
,,,,,,0.139800347,0.014171007,1,0,0,0.801045,M,,,,,,-0.285606,-0.21915,,zw,n/a,25,Female,Right,trackpad,Yes,2021-03-04_13h39.21.960,facelocalization,2020.1.2,MacIntel,60,-0.298411458,-0.266080729,1,0,0,1.032375,27,0,324,324,317,1,7
,,,,,,-0.115533854,-0.025946181,1,0,0,0.998515,F,,,,,,0.332586,-0.137754,,zw,n/a,25,Female,Right,trackpad,Yes,2021-03-04_13h39.21.960,facelocalization,2020.1.2,MacIntel,60,0.360429687,-0.171657986,1,0,0,1.31799,20,0,325,325,237,1,5
,,,,,,0.145525174,-0.006610243,1,0,0,0.85211,M,,,,,,-0.254556,0.254556,,zw,n/a,25,Female,Right,trackpad,Yes,2021-03-04_13h39.21.960,facelocalization,2020.1.2,MacIntel,60,-0.270750868,0.246236979,1,0,0,0.99958,24,0,326,326,258,1,6
,,,,,,-0.128190104,0.002643229,1,0,0,0.76529,F,,,,,,0.18,-0.31176,,zw,n/a,25,Female,Right,trackpad,Yes,2021-03-04_13h39.21.960,facelocalization,2020.1.2,MacIntel,60,0.228576389,-0.314722222,1,0,0,1.28383,23,0,327,327,280,1,6
,,,,,,0.147374132,-0.003250868,1,0,0,1.13312,M,,,,,,0.285606,-0.21915,,zw,n/a,25,Female,Right,trackpad,Yes,2021-03-04_13h39.21.960,facelocalization,2020.1.2,MacIntel,60,0.312478299,-0.250638021,1,0,0,1.200995,5,0,328,328,91,1,2
,,,,,,0.162682292,0.000147569,1,0,0,0.60134,M,,,,,,0.093168,0.347724,,zw,n/a,25,Female,Right,trackpad,Yes,2021-03-04_13h39.21.960,facelocalization,2020.1.2,MacIntel,60,0.088993056,0.347530382,1,0,0,1.1995,5,0,329,329,58,1,2
,,,,,,-0.143190104,-0.002842882,1,0,0,0.60015,F,,,,,,0,0.36,,zw,n/a,25,Female,Right,trackpad,Yes,2021-03-04_13h39.21.960,facelocalization,2020.1.2,MacIntel,60,0.014670139,0.356631944,1,0,0,1.266395,4,0,330,330,12,1,1
,,,,,,0.163246528,-0.011992187,1,0,0,0.66674,M,,,,,,0.31176,-0.18,,zw,n/a,25,Female,Right,trackpad,Yes,2021-03-04_13h39.21.960,facelocalization,2020.1.2,MacIntel,60,0.355733507,-0.199939236,1,0,0,1.466415,13,0,331,331,188,1,4
,,,,,,0.148385417,-0.018767361,1,0,0,1.56978,M,,,,,,-0.332586,-0.137754,,zw,n/a,25,Female,Right,trackpad,Yes,2021-03-04_13h39.21.960,facelocalization,2020.1.2,MacIntel,60,-0.383272569,-0.152947049,1,0,0,1.09876,31,0,332,332,363,1,8
,,,,,,0.157643229,-0.001905382,1,0,0,0.5996,M,,,,,,0.356904,0.04698,,zw,n/a,25,Female,Right,trackpad,Yes,2021-03-04_13h39.21.960,facelocalization,2020.1.2,MacIntel,60,0.433424479,0.037999132,1,0,0,1.317565,19,0,333,333,193,1,5
,,,,,,0.165013021,0.006618924,1,0,0,0.766945,M,,,,,,-0.347724,0.093168,,zw,n/a,25,Female,Right,trackpad,Yes,2021-03-04_13h39.21.960,facelocalization,2020.1.2,MacIntel,60,-0.374700521,0.083446181,1,0,0,1.13334,19,0,334,334,214,1,5
,,,,,,0.118663194,-0.012052951,1,0,0,1.256535,M,,,,,,-0.31176,-0.18,,zw,n/a,25,Female,Right,trackpad,Yes,2021-03-04_13h39.21.960,facelocalization,2020.1.2,MacIntel,60,-0.362408854,-0.195672743,1,0,0,1.095255,10,0,335,335,124,1,3
,,,,,,-0.121953125,0.017578125,1,0,0,0.782895,F,,,,,,0.285606,0.21915,,zw,n/a,25,Female,Right,trackpad,Yes,2021-03-04_13h39.21.960,facelocalization,2020.1.2,MacIntel,60,0.324730903,0.185585937,1,0,0,1.334415,11,0,336,336,101,1,3
,,,,,,0.170065104,-0.00297309,1,0,0,0.716505,M,,,,,,-0.31176,0.18,,zw,n/a,25,Female,Right,trackpad,Yes,2021-03-04_13h39.21.960,facelocalization,2020.1.2,MacIntel,60,-0.325846354,0.166046007,1,0,0,1.13368,25,0,337,337,308,1,7
,,,,,,0.180013021,-0.010225694,1,0,0,0.877645,M,,,,,,0.04698,-0.356904,,zw,n/a,25,Female,Right,trackpad,Yes,2021-03-04_13h39.21.960,facelocalization,2020.1.2,MacIntel,60,0.026028646,-0.366979167,1,0,0,1.065405,15,0,338,338,181,1,4
,,,,,,0.163689236,0.002144097,1,0,0,0.715745,M,,,,,,-0.31176,-0.18,,zw,n/a,25,Female,Right,trackpad,Yes,2021-03-04_13h39.21.960,facelocalization,2020.1.2,MacIntel,60,-0.328224826,-0.212065972,1,0,0,0.983005,13,0,339,339,172,1,4
,,,,,,0.152317708,-0.016888021,1,0,0,0.58397,M,,,,,,-0.356904,-0.04698,,zw,n/a,25,Female,Right,trackpad,Yes,2021-03-04_13h39.21.960,facelocalization,2020.1.2,MacIntel,60,-0.355881076,-0.053302951,1,0,0,1.19834,8,0,340,340,73,1,2
,,,,,,-0.147803819,0.001284722,1,0,0,0.56603,F,,,,,,-0.36,0,,zw,n/a,25,Female,Right,trackpad,Yes,2021-03-04_13h39.21.960,facelocalization,2020.1.2,MacIntel,60,-0.413203125,-0.003585069,1,0,0,1.01699,4,0,341,341,24,1,1
,,,,,,0.124162326,-0.029852431,1,0,0,0.58368,M,,,,,,0.21915,0.285606,,zw,n/a,25,Female,Right,trackpad,Yes,2021-03-04_13h39.21.960,facelocalization,2020.1.2,MacIntel,60,0.269830729,0.273671875,1,0,0,1.10062,8,0,342,342,55,1,2
,,,,,,0.143211806,-0.014835069,1,0,0,0.583525,M,,,,,,0.31176,0.18,,zw,n/a,25,Female,Right,trackpad,Yes,2021-03-04_13h39.21.960,facelocalization,2020.1.2,MacIntel,60,0.337282986,0.151796875,1,0,0,1.11647,13,0,343,343,148,1,4
,,,,,,0.130989583,-0.010091146,1,0,0,0.74937,M,,,,,,-0.31176,-0.18,,zw,n/a,25,Female,Right,trackpad,Yes,2021-03-04_13h39.21.960,facelocalization,2020.1.2,MacIntel,60,-0.327947049,-0.220295139,1,0,0,1.133865,30,0,344,344,364,1,8
,,,,,,-0.167986111,-0.006475694,1,0,0,0.617405,F,,,,,,-0.347724,-0.093168,,zw,n/a,25,Female,Right,trackpad,Yes,2021-03-04_13h39.21.960,facelocalization,2020.1.2,MacIntel,60,-0.354184028,-0.106375868,1,0,0,1.015865,2,0,345,345,26,1,1
,,,,,,0.154019097,-0.020225694,1,0,0,0.617345,M,,,,,,0.093168,0.347724,,zw,n/a,25,Female,Right,trackpad,Yes,2021-03-04_13h39.21.960,facelocalization,2020.1.2,MacIntel,60,0.161727431,0.329609375,1,0,0,1.19982,13,0,346,346,154,1,4
,,,,,,-0.149869792,0.010677083,1,0,0,1.583375,F,,,,,,-0.254556,-0.254556,,zw,n/a,25,Female,Right,trackpad,Yes,2021-03-04_13h39.21.960,facelocalization,2020.1.2,MacIntel,60,-0.291914063,-0.264809028,1,0,0,0.966455,29,0,347,347,366,1,8
,,,,,,-0.135082465,-0.004184028,1,0,0,0.765665,F,,,,,,0.285606,-0.21915,,zw,n/a,25,Female,Right,trackpad,Yes,2021-03-04_13h39.21.960,facelocalization,2020.1.2,MacIntel,60,0.300724826,-0.23797309,1,0,0,1.23261,24,0,348,348,283,1,6
,,,,,,0.146640625,-0.019965278,1,0,0,0.716895,M,,,,,,-0.21915,0.285606,,zw,n/a,25,Female,Right,trackpad,Yes,2021-03-04_13h39.21.960,facelocalization,2020.1.2,MacIntel,60,-0.246323785,0.26437066,1,0,0,1.166115,29,0,349,349,353,1,8
,,,,,,-0.164657118,-0.020746528,1,0,0,0.75134,F,,,,,,0.36,0,,zw,n/a,25,Female,Right,trackpad,Yes,2021-03-04_13h39.21.960,facelocalization,2020.1.2,MacIntel,60,0.383394097,-0.017838542,1,0,0,1.216685,30,0,350,350,336,1,8
,,,,,,-0.148125,-0.040616319,1,0,0,0.616295,F,,,,,,0.04698,-0.356904,,zw,n/a,25,Female,Right,trackpad,Yes,2021-03-04_13h39.21.960,facelocalization,2020.1.2,MacIntel,60,0.050212674,-0.344861111,1,0,0,1.099035,10,0,351,351,133,1,3
,,,,,,-0.15078125,-0.0084375,1,0,0,0.71587,F,,,,,,0.21915,-0.285606,,zw,n/a,25,Female,Right,trackpad,Yes,2021-03-04_13h39.21.960,facelocalization,2020.1.2,MacIntel,60,0.217586806,-0.280026042,1,0,0,1.184055,20,0,352,352,233,1,5
,,,,,,0.153042535,0.002096354,1,0,0,0.61835,M,,,,,,0.21915,0.285606,,zw,n/a,25,Female,Right,trackpad,Yes,2021-03-04_13h39.21.960,facelocalization,2020.1.2,MacIntel,60,0.255225694,0.28015625,1,0,0,1.19942,23,0,353,353,247,1,6
,,,,,,0.135820313,0.039778646,1,0,0,1.265535,M,,,,,,-0.356904,0.04698,,zw,n/a,25,Female,Right,trackpad,Yes,2021-03-04_13h39.21.960,facelocalization,2020.1.2,MacIntel,60,-0.390043403,0.068836806,1,0,0,1.132655,32,0,354,354,359,1,8
,,,,,,-0.134201389,0.001736111,1,0,0,0.5993,F,,,,,,-0.21915,-0.285606,,zw,n/a,25,Female,Right,trackpad,Yes,2021-03-04_13h39.21.960,facelocalization,2020.1.2,MacIntel,60,-0.239461806,-0.31437066,1,0,0,1.23189,10,0,355,355,127,1,3
,,,,,,0.168611111,-0.012634549,1,0,0,0.649555,M,,,,,,-0.254556,0.254556,,zw,n/a,25,Female,Right,trackpad,Yes,2021-03-04_13h39.21.960,facelocalization,2020.1.2,MacIntel,60,-0.256883681,0.228524306,1,0,0,1.38289,16,0,356,356,162,1,4
,,,,,,-0.169244792,0.023059896,1,0,0,0.96802,F,,,,,,0.332586,0.137754,,zw,n/a,25,Female,Right,trackpad,Yes,2021-03-04_13h39.21.960,facelocalization,2020.1.2,MacIntel,60,0.382725694,0.142617187,1,0,0,1.03218,14,0,357,357,147,1,4
,,,,,,0.131905382,0.015138889,1,0,0,0.61629,M,,,,,,-0.04698,0.356904,,zw,n/a,25,Female,Right,trackpad,Yes,2021-03-04_13h39.21.960,facelocalization,2020.1.2,MacIntel,60,-0.044674479,0.321019965,1,0,0,1.150125,8,0,358,358,61,1,2
,,,,,,0.166197917,-0.006579861,1,0,0,0.6836,M,,,,,,-0.18,0.31176,,zw,n/a,25,Female,Right,trackpad,Yes,2021-03-04_13h39.21.960,facelocalization,2020.1.2,MacIntel,60,-0.187013889,0.327851563,1,0,0,1.05128,7,0,359,359,64,1,2
,,,,,,-0.115529514,0.012690972,1,0,0,1.484325,F,,,,,,0.31176,0.18,,zw,n/a,25,Female,Right,trackpad,Yes,2021-03-04_13h39.21.960,facelocalization,2020.1.2,MacIntel,60,0.367078993,0.168697917,1,0,0,1.36516,28,0,360,360,292,1,7
,,,,,,-0.202903646,0.011506076,1,0,0,0.632975,F,,,,,,0.254556,-0.254556,,zw,n/a,25,Female,Right,trackpad,Yes,2021-03-04_13h39.21.960,facelocalization,2020.1.2,MacIntel,60,0.284466146,-0.276158854,1,0,0,1.199465,26,0,361,361,330,1,7
,,,,,,0.166115451,-0.00734809,1,0,0,0.767335,M,,,,,,-0.21915,0.285606,,zw,n/a,25,Female,Right,trackpad,Yes,2021-03-04_13h39.21.960,facelocalization,2020.1.2,MacIntel,60,-0.232821181,0.230868056,1,0,0,1.28267,2,0,362,362,17,1,1
,,,,,,0.158246528,-0.023836806,1,0,0,1.53187,M,,,,,,0.285606,-0.21915,,zw,n/a,25,Female,Right,trackpad,Yes,2021-03-04_13h39.21.960,facelocalization,2020.1.2,MacIntel,60,0.324765625,-0.251710069,1,0,0,1.1349,15,0,363,363,187,1,4
,,,,,,-0.166814236,-0.001493056,1,0,0,0.738145,F,,,,,,-0.21915,0.285606,,zw,n/a,25,Female,Right,trackpad,Yes,2021-03-04_13h39.21.960,facelocalization,2020.1.2,MacIntel,60,-0.262955729,0.30796441,1,0,0,1.56668,17,0,364,364,209,1,5
,,,,,,-0.146649306,-0.020616319,1,0,0,0.682335,F,,,,,,0,-0.36,,zw,n/a,25,Female,Right,trackpad,Yes,2021-03-04_13h39.21.960,facelocalization,2020.1.2,MacIntel,60,-0.005364583,-0.339861111,1,0,0,1.084235,18,0,365,365,228,1,5
,,,,,,-0.120447049,0.026141493,1,0,0,0.91643,F,,,,,,0.347724,0.093168,,zw,n/a,25,Female,Right,trackpad,Yes,2021-03-04_13h39.21.960,facelocalization,2020.1.2,MacIntel,60,0.359626736,0.122135417,1,0,0,1.68283,17,0,366,366,194,1,5
,,,,,,-0.138949653,-0.028519965,1,0,0,0.633735,F,,,,,,-0.04698,-0.356904,,zw,n/a,25,Female,Right,trackpad,Yes,2021-03-04_13h39.21.960,facelocalization,2020.1.2,MacIntel,60,-0.05062066,-0.392712674,1,0,0,1.165635,4,0,367,367,35,1,1
,,,,,,-0.125086806,-0.028151042,1,0,0,0.8833,F,,,,,,0.285606,-0.21915,,zw,n/a,25,Female,Right,trackpad,Yes,2021-03-04_13h39.21.960,facelocalization,2020.1.2,MacIntel,60,0.304930556,-0.255985243,1,0,0,1.19792,10,0,368,368,139,1,3
,,,,,,0.110902778,-0.006766493,1,0,0,1.70037,M,,,,,,-0.093168,0.347724,,zw,n/a,25,Female,Right,trackpad,Yes,2021-03-04_13h39.21.960,facelocalization,2020.1.2,MacIntel,60,-0.070507813,0.322404514,1,0,0,1.26507,32,0,369,369,350,1,8
,,,,,,0.15108941,0.011601563,1,0,0,0.58309,M,,,,,,-0.04698,0.356904,,zw,n/a,25,Female,Right,trackpad,Yes,2021-03-04_13h39.21.960,facelocalization,2020.1.2,MacIntel,60,-0.045277778,0.337135417,1,0,0,1.149405,22,0,370,370,253,1,6
,,,,,,0.108142361,0.020264757,1,0,0,0.650095,M,,,,,,-0.04698,0.356904,,zw,n/a,25,Female,Right,trackpad,Yes,2021-03-04_13h39.21.960,facelocalization,2020.1.2,MacIntel,60,-0.049236111,0.316744792,1,0,0,1.19963,13,0,371,371,157,1,4
,,,,,,-0.183033854,-0.031705729,1,0,0,0.649785,F,,,,,,-0.285606,-0.21915,,zw,n/a,25,Female,Right,trackpad,Yes,2021-03-04_13h39.21.960,facelocalization,2020.1.2,MacIntel,60,-0.331888021,-0.228229167,1,0,0,0.94894,10,0,372,372,125,1,3
,,,,,,0.180811632,-0.027352431,1,0,0,0.56469,M,,,,,,0.356904,-0.04698,,zw,n/a,25,Female,Right,trackpad,Yes,2021-03-04_13h39.21.960,facelocalization,2020.1.2,MacIntel,60,0.437569444,-0.084670139,1,0,0,1.28421,21,0,373,373,287,1,6
,,,,,,0.169019097,-0.028020833,1,0,0,0.683765,M,,,,,,-0.18,0.31176,,zw,n/a,25,Female,Right,trackpad,Yes,2021-03-04_13h39.21.960,facelocalization,2020.1.2,MacIntel,60,-0.180651042,0.303515625,1,0,0,1.167355,21,0,374,374,256,1,6
,,,,,,0.144665799,-0.008546007,1,0,0,0.666595,M,,,,,,0.332586,0.137754,,zw,n/a,25,Female,Right,trackpad,Yes,2021-03-04_13h39.21.960,facelocalization,2020.1.2,MacIntel,60,0.414518229,0.11312066,1,0,0,1.016585,11,0,375,375,99,1,3
,,,,,,0.146258681,0.00952691,1,0,0,0.699645,M,,,,,,-0.04698,0.356904,,zw,n/a,25,Female,Right,trackpad,Yes,2021-03-04_13h39.21.960,facelocalization,2020.1.2,MacIntel,60,-0.035538194,0.350407986,1,0,0,1.116805,9,0,376,376,109,1,3
,,,,,,-0.151861979,-0.009357639,1,0,0,0.68375,F,,,,,,-0.31176,-0.18,,zw,n/a,25,Female,Right,trackpad,Yes,2021-03-04_13h39.21.960,facelocalization,2020.1.2,MacIntel,60,-0.334149306,-0.187005208,1,0,0,1.01543,20,0,377,377,220,1,5
,,,,,,0.161393229,-0.009696181,1,0,0,0.749995,M,,,,,,-0.356904,-0.04698,,zw,n/a,25,Female,Right,trackpad,Yes,2021-03-04_13h39.21.960,facelocalization,2020.1.2,MacIntel,60,-0.377873264,-0.079713542,1,0,0,1.248325,9,0,378,378,121,1,3
,,,,,,0.15593316,-0.014639757,1,0,0,0.79979,M,,,,,,-0.093168,-0.347724,,zw,n/a,25,Female,Right,trackpad,Yes,2021-03-04_13h39.21.960,facelocalization,2020.1.2,MacIntel,60,-0.118849826,-0.343198785,1,0,0,1.1981,2,0,379,379,34,1,1
,,,,,,0.167734375,-0.002595486,1,0,0,0.79906,M,,,,,,-0.285606,0.21915,,zw,n/a,25,Female,Right,trackpad,Yes,2021-03-04_13h39.21.960,facelocalization,2020.1.2,MacIntel,60,-0.32046441,0.20984375,1,0,0,1.349265,25,0,380,380,307,1,7
,,,,,,0.125815972,-0.040672743,1,0,0,0.669935,M,,,,,,-0.18,-0.31176,,zw,n/a,25,Female,Right,trackpad,Yes,2021-03-04_13h39.21.960,facelocalization,2020.1.2,MacIntel,60,-0.205555556,-0.314444444,1,0,0,0.91362,5,0,381,381,80,1,2
,,,,,,-0.164227431,0.00328559,1,0,0,0.816775,F,,,,,,0.21915,0.285606,,zw,n/a,25,Female,Right,trackpad,Yes,2021-03-04_13h39.21.960,facelocalization,2020.1.2,MacIntel,60,0.240299479,0.291145833,1,0,0,1.16808,27,0,382,382,295,1,7
,,,,,,-0.131731771,0.0090625,1,0,0,0.699595,F,,,,,,-0.36,0,,zw,n/a,25,Female,Right,trackpad,Yes,2021-03-04_13h39.21.960,facelocalization,2020.1.2,MacIntel,60,-0.354127604,-0.003563368,1,0,0,1.01695,10,0,383,383,120,1,3
,,,,,,-0.136953125,0.011345486,1,0,0,1.499885,F,,,,,,0.356904,0.04698,,zw,n/a,25,Female,Right,trackpad,Yes,2021-03-04_13h39.21.960,facelocalization,2020.1.2,MacIntel,60,0.395755208,0.076796875,1,0,0,1.365685,23,1,0,384,241,1,6
,,,,,,-0.154678819,-0.011527778,1,0,0,0.83293,F,,,,,,0.347724,-0.093168,,zw,n/a,25,Female,Right,trackpad,Yes,2021-03-04_13h39.21.960,facelocalization,2020.1.2,MacIntel,60,0.428767361,-0.090716146,1,0,0,1.15098,29,1,1,385,382,1,8
,,,,,,-0.13702691,-0.004344618,1,0,0,0.61728,F,,,,,,0.18,0.31176,,zw,n/a,25,Female,Right,trackpad,Yes,2021-03-04_13h39.21.960,facelocalization,2020.1.2,MacIntel,60,0.243229167,0.313940972,1,0,0,1.117325,30,1,2,386,344,1,8
,,,,,,-0.162894965,-0.021953125,1,0,0,0.666925,F,,,,,,-0.18,0.31176,,zw,n/a,25,Female,Right,trackpad,Yes,2021-03-04_13h39.21.960,facelocalization,2020.1.2,MacIntel,60,-0.168038194,0.298333333,1,0,0,1.04809,3,1,3,387,16,1,1
,,,,,,0.164275174,-0.026223958,1,0,0,0.56706,M,,,,,,0.18,-0.31176,,zw,n/a,25,Female,Right,trackpad,Yes,2021-03-04_13h39.21.960,facelocalization,2020.1.2,MacIntel,60,0.190546875,-0.313164063,1,0,0,1.117815,22,1,4,388,280,1,6
,,,,,,0.17999566,0.029071181,1,0,0,0.64928,M,,,,,,0.31176,0.18,,zw,n/a,25,Female,Right,trackpad,Yes,2021-03-04_13h39.21.960,facelocalization,2020.1.2,MacIntel,60,0.359131944,0.213862847,1,0,0,0.916715,23,1,5,389,244,1,6
,,,,,,-0.116440972,-0.033823785,1,0,0,0.649615,F,,,,,,0.04698,-0.356904,,zw,n/a,25,Female,Right,trackpad,Yes,2021-03-04_13h39.21.960,facelocalization,2020.1.2,MacIntel,60,0.036037326,-0.365173611,1,0,0,1.03345,26,1,6,390,325,1,7
,,,,,,0.160755208,-0.014092882,1,0,0,0.69912,M,,,,,,0.18,-0.31176,,zw,n/a,25,Female,Right,trackpad,Yes,2021-03-04_13h39.21.960,facelocalization,2020.1.2,MacIntel,60,0.213719618,-0.3303125,1,0,0,1.432205,28,1,7,391,328,1,7
,,,,,,0.169592014,-0.000724826,1,0,0,0.8175,M,,,,,,-0.137754,-0.332586,,zw,n/a,25,Female,Right,trackpad,Yes,2021-03-04_13h39.21.960,facelocalization,2020.1.2,MacIntel,60,-0.1278125,-0.368220486,1,0,0,1.26461,24,1,8,392,273,1,6
,,,,,,0.172526042,-0.014253472,1,0,0,2.216755,M,,,,,,-0.356904,0.04698,,zw,n/a,25,Female,Right,trackpad,Yes,2021-03-04_13h39.21.960,facelocalization,2020.1.2,MacIntel,60,-0.397309028,0.022921007,1,0,0,1.150945,13,1,9,393,167,1,4
,,,,,,-0.148880208,-0.014409722,1,0,0,0.616775,F,,,,,,-0.04698,-0.356904,,zw,n/a,25,Female,Right,trackpad,Yes,2021-03-04_13h39.21.960,facelocalization,2020.1.2,MacIntel,60,-0.057799479,-0.354453125,1,0,0,1.45074,1,1,10,394,35,1,1
,,,,,,0.145117187,-0.010755208,1,0,0,0.967605,M,,,,,,-0.137754,-0.332586,,zw,n/a,25,Female,Right,trackpad,Yes,2021-03-04_13h39.21.960,facelocalization,2020.1.2,MacIntel,60,-0.146762153,-0.327734375,1,0,0,1.15114,28,1,11,395,321,1,7
,,,,,,-0.137573785,-0.002287326,1,0,0,1.651005,F,,,,,,0.347724,0.093168,,zw,n/a,25,Female,Right,trackpad,Yes,2021-03-04_13h39.21.960,facelocalization,2020.1.2,MacIntel,60,0.368237847,0.100060764,1,0,0,1.015325,17,1,12,396,194,1,5
,,,,,,0.130138889,-0.020199653,1,0,0,0.8342,M,,,,,,-0.31176,-0.18,,zw,n/a,25,Female,Right,trackpad,Yes,2021-03-04_13h39.21.960,facelocalization,2020.1.2,MacIntel,60,-0.326189236,-0.216835937,1,0,0,0.949435,12,1,13,397,124,1,3
,,,,,,0.13547309,-0.013250868,1,0,0,0.934405,M,,,,,,0.31176,0.18,,zw,n/a,25,Female,Right,trackpad,Yes,2021-03-04_13h39.21.960,facelocalization,2020.1.2,MacIntel,60,0.37266059,0.182161458,1,0,0,1.265665,19,1,14,398,196,1,5
,,,,,,0.164861111,-0.008181424,1,0,0,0.66702,M,,,,,,-0.04698,-0.356904,,zw,n/a,25,Female,Right,trackpad,Yes,2021-03-04_13h39.21.960,facelocalization,2020.1.2,MacIntel,60,-0.097543403,-0.365390625,1,0,0,1.030745,7,1,15,399,83,1,2
,,,,,,0.181024306,0.013255208,1,0,0,0.93435,M,,,,,,0.31176,0.18,,zw,n/a,25,Female,Right,trackpad,Yes,2021-03-04_13h39.21.960,facelocalization,2020.1.2,MacIntel,60,0.353776042,0.183020833,1,0,0,1.116225,31,1,16,400,340,1,8
,,,,,,0.124492188,-0.047825521,1,0,0,0.61562,M,,,,,,-0.04698,-0.356904,,zw,n/a,25,Female,Right,trackpad,Yes,2021-03-04_13h39.21.960,facelocalization,2020.1.2,MacIntel,60,-0.051835937,-0.337547743,1,0,0,1.36593,16,1,17,401,179,1,4
,,,,,,0.185303819,0.026497396,1,0,0,0.717555,M,,,,,,-0.285606,-0.21915,,zw,n/a,25,Female,Right,trackpad,Yes,2021-03-04_13h39.21.960,facelocalization,2020.1.2,MacIntel,60,-0.270386285,-0.249001736,1,0,0,1.216175,23,1,18,402,269,1,6
,,,,,,0.184756944,0.033715278,1,0,0,0.54904,M,,,,,,0.285606,0.21915,,zw,n/a,25,Female,Right,trackpad,Yes,2021-03-04_13h39.21.960,facelocalization,2020.1.2,MacIntel,60,0.309053819,0.186037326,1,0,0,1.23494,16,1,19,403,149,1,4
,,,,,,0.150190972,0.015347222,1,0,0,0.648715,M,,,,,,0.21915,0.285606,,zw,n/a,25,Female,Right,trackpad,Yes,2021-03-04_13h39.21.960,facelocalization,2020.1.2,MacIntel,60,0.256744792,0.263381076,1,0,0,1.06572,28,1,20,404,295,1,7
,,,,,,0.174435764,-0.016940104,1,0,0,0.967845,M,,,,,,0.093168,-0.347724,,zw,n/a,25,Female,Right,trackpad,Yes,2021-03-04_13h39.21.960,facelocalization,2020.1.2,MacIntel,60,0.115043403,-0.350976562,1,0,0,1.248615,13,1,21,405,182,1,4
,,,,,,-0.158515625,-0.008693576,1,0,0,1.2148,F,,,,,,-0.137754,-0.332586,,zw,n/a,25,Female,Right,trackpad,Yes,2021-03-04_13h39.21.960,facelocalization,2020.1.2,MacIntel,60,-0.137400174,-0.362013889,1,0,0,1.249825,31,1,22,406,369,1,8
,,,,,,0.133580729,-0.012773438,1,0,0,0.70109,M,,,,,,-0.332586,-0.137754,,zw,n/a,25,Female,Right,trackpad,Yes,2021-03-04_13h39.21.960,facelocalization,2020.1.2,MacIntel,60,-0.303385417,-0.176649306,1,0,0,1.481365,8,1,23,407,75,1,2
,,,,,,0.147317708,0.006393229,1,0,0,1.066665,M,,,,,,0.21915,-0.285606,,zw,n/a,25,Female,Right,trackpad,Yes,2021-03-04_13h39.21.960,facelocalization,2020.1.2,MacIntel,60,0.253111979,-0.312573785,1,0,0,1.06749,21,1,24,408,281,1,6
,,,,,,-0.165130208,0.004171007,1,0,0,0.666265,F,,,,,,-0.36,0,,zw,n/a,25,Female,Right,trackpad,Yes,2021-03-04_13h39.21.960,facelocalization,2020.1.2,MacIntel,60,-0.40249566,-0.011193576,1,0,0,1.081925,30,1,25,409,360,1,8
,,,,,,-0.180759549,-0.005590278,1,0,0,0.66679,F,,,,,,0.332586,0.137754,,zw,n/a,25,Female,Right,trackpad,Yes,2021-03-04_13h39.21.960,facelocalization,2020.1.2,MacIntel,60,0.378637153,0.111202257,1,0,0,1.333315,19,1,26,410,195,1,5
,,,,,,0.154587674,-0.035568576,1,0,0,0.61728,M,,,,,,-0.137754,-0.332586,,zw,n/a,25,Female,Right,trackpad,Yes,2021-03-04_13h39.21.960,facelocalization,2020.1.2,MacIntel,60,-0.140099826,-0.328394097,1,0,0,1.23309,7,1,27,411,81,1,2
,,,,,,-0.114887153,-0.022178819,1,0,0,0.70162,F,,,,,,0.18,-0.31176,,zw,n/a,25,Female,Right,trackpad,Yes,2021-03-04_13h39.21.960,facelocalization,2020.1.2,MacIntel,60,0.188914931,-0.315295139,1,0,0,1.117285,11,1,28,412,136,1,3
,,,,,,0.13858941,-0.009019097,1,0,0,0.6656,M,,,,,,-0.31176,-0.18,,zw,n/a,25,Female,Right,trackpad,Yes,2021-03-04_13h39.21.960,facelocalization,2020.1.2,MacIntel,60,-0.331896701,-0.187092014,1,0,0,1.048525,25,1,29,413,316,1,7
,,,,,,0.187387153,-0.012413194,1,0,0,1.033345,M,,,,,,0.332586,-0.137754,,zw,n/a,25,Female,Right,trackpad,Yes,2021-03-04_13h39.21.960,facelocalization,2020.1.2,MacIntel,60,0.333815104,-0.132938368,1,0,0,1.13396,31,1,30,414,381,1,8
,,,,,,-0.130598958,-0.018971354,1,0,0,0.716905,F,,,,,,-0.36,0,,zw,n/a,25,Female,Right,trackpad,Yes,2021-03-04_13h39.21.960,facelocalization,2020.1.2,MacIntel,60,-0.427977431,-0.019639757,1,0,0,1.11514,4,1,31,415,24,1,1
,,,,,,0.152430556,0.00468316,1,0,0,0.56666,M,,,,,,0.137754,0.332586,,zw,n/a,25,Female,Right,trackpad,Yes,2021-03-04_13h39.21.960,facelocalization,2020.1.2,MacIntel,60,0.148710938,0.302100694,1,0,0,1.516335,6,1,32,416,57,1,2
,,,,,,0.157473958,-0.018094618,1,0,0,0.76423,M,,,,,,-0.254556,0.254556,,zw,n/a,25,Female,Right,trackpad,Yes,2021-03-04_13h39.21.960,facelocalization,2020.1.2,MacIntel,60,-0.250199653,0.233793403,1,0,0,1.333855,25,1,33,417,306,1,7
,,,,,,-0.154596354,0.013311632,1,0,0,1.532195,F,,,,,,-0.254556,-0.254556,,zw,n/a,25,Female,Right,trackpad,Yes,2021-03-04_13h39.21.960,facelocalization,2020.1.2,MacIntel,60,-0.290542535,-0.278715278,1,0,0,1.16813,18,1,34,418,222,1,5
,,,,,,0.147921007,-0.021497396,1,0,0,0.60067,M,,,,,,0.285606,0.21915,,zw,n/a,25,Female,Right,trackpad,Yes,2021-03-04_13h39.21.960,facelocalization,2020.1.2,MacIntel,60,0.333645833,0.215390625,1,0,0,1.03307,29,1,35,419,341,1,8
,,,,,,0.149184028,-0.004592014,1,0,0,0.649075,M,,,,,,-0.347724,-0.093168,,zw,n/a,25,Female,Right,trackpad,Yes,2021-03-04_13h39.21.960,facelocalization,2020.1.2,MacIntel,60,-0.370069444,-0.112044271,1,0,0,0.93265,6,1,36,420,74,1,2
,,,,,,-0.135069444,0.006032986,1,0,0,0.70073,F,,,,,,-0.356904,-0.04698,,zw,n/a,25,Female,Right,trackpad,Yes,2021-03-04_13h39.21.960,facelocalization,2020.1.2,MacIntel,60,-0.358888889,-0.060017361,1,0,0,1.10012,1,1,37,421,25,1,1
,,,,,,0.148268229,-0.006931424,1,0,0,0.817625,M,,,,,,-0.254556,0.254556,,zw,n/a,25,Female,Right,trackpad,Yes,2021-03-04_13h39.21.960,facelocalization,2020.1.2,MacIntel,60,-0.282951389,0.253389757,1,0,0,1.016285,32,1,38,422,354,1,8
,,,,,,-0.11452691,-0.001315104,1,0,0,0.633035,F,,,,,,-0.356904,-0.04698,,zw,n/a,25,Female,Right,trackpad,Yes,2021-03-04_13h39.21.960,facelocalization,2020.1.2,MacIntel,60,-0.434600694,-0.078485243,1,0,0,1.015985,19,1,39,423,217,1,5
,,,,,,0.147903646,-0.009761285,1,0,0,0.59941,M,,,,,,0.254556,-0.254556,,zw,n/a,25,Female,Right,trackpad,Yes,2021-03-04_13h39.21.960,facelocalization,2020.1.2,MacIntel,60,0.311710069,-0.256701389,1,0,0,1.117815,24,1,40,424,282,1,6
,,,,,,0.178880208,0.001532118,1,0,0,0.56711,M,,,,,,0.356904,-0.04698,,zw,n/a,25,Female,Right,trackpad,Yes,2021-03-04_13h39.21.960,facelocalization,2020.1.2,MacIntel,60,0.358476562,-0.058020833,1,0,0,1.28441,16,1,41,425,191,1,4
,,,,,,0.167669271,-0.022330729,1,0,0,0.949765,M,,,,,,0.254556,-0.254556,,zw,n/a,25,Female,Right,trackpad,Yes,2021-03-04_13h39.21.960,facelocalization,2020.1.2,MacIntel,60,0.297795139,-0.250069444,1,0,0,1.03352,11,1,42,426,138,1,3
,,,,,,0.14016059,-0.012673611,1,0,0,2.449875,M,,,,,,-0.332586,0.137754,,zw,n/a,25,Female,Right,trackpad,Yes,2021-03-04_13h39.21.960,facelocalization,2020.1.2,MacIntel,60,-0.338506944,0.139466146,1,0,0,1.2824,8,1,43,427,69,1,2
